time,dt,pos_x,pos_y,pos_z,vel_body_x,vel_body_y,vel_body_z,acc_x,acc_y,acc_z,ang_vel_x,ang_vel_y,ang_vel_z,ang_acc_x,ang_acc_y,ang_acc_z,roll,pitch,yaw,qw,qx,qy,qz,pwm_1,pwm_2,pwm_3,pwm_4,total_thrust,cmd_thrust,cmd_roll,cmd_pitch,cmd_yaw,trajectory_type
0.000000,0.000000,0.025783,-0.048365,-2.007474,0.027702,-0.122513,0.031016,0.008608,0.002268,-9.871634,-0.001702,0.011003,0.006692,-0.003087,0.010308,0.005971,0.009469,-0.028679,1.538768,0.718210,0.013376,-0.007006,0.695662,0.732700,0.731003,0.732363,0.730868,2.926934,-0.731759,-0.001573,0.015341,0.006315,
0.009830,0.009830,0.026021,-0.049240,-2.007020,0.026687,-0.117142,0.029932,0.018704,0.005332,-9.872339,-0.002255,0.012365,0.006091,-0.002634,0.012136,0.005791,0.009430,-0.028524,1.538711,0.718232,0.013308,-0.006965,0.695642,0.732461,0.731237,0.732025,0.731208,2.926930,-0.731771,-0.001665,0.016484,0.006319,
0.019866,0.010036,0.026128,-0.049597,-2.006806,0.026148,-0.114363,0.029404,0.020514,0.007568,-9.878078,-0.002178,0.013798,0.006103,-0.001774,0.014607,0.005846,0.009413,-0.028429,1.538685,0.718241,0.013269,-0.006937,0.695633,0.732572,0.731206,0.731989,0.731315,2.927082,-0.731791,-0.001734,0.018457,0.006330,
0.029909,0.010043,0.026233,-0.049942,-2.006594,0.025637,-0.111627,0.028863,0.013602,0.002324,-9.881274,-0.001892,0.014250,0.006268,-0.002032,0.016245,0.006661,0.009398,-0.028332,1.538656,0.718252,0.013229,-0.006908,0.695623,0.732717,0.731096,0.732141,0.731210,2.927164,-0.731800,-0.001799,0.019370,0.006335,
0.039953,0.010044,0.026335,-0.050276,-2.006387,0.025116,-0.108957,0.028291,0.010745,0.005233,-9.871264,-0.001858,0.016434,0.006803,-0.002212,0.017889,0.005807,0.009383,-0.028217,1.538633,0.718261,0.013184,-0.006872,0.695615,0.732358,0.731436,0.731834,0.731535,2.927164,-0.731807,-0.001864,0.020265,0.006340,
0.049850,0.009897,0.026532,-0.050857,-2.005981,0.024114,-0.103610,0.027210,0.007641,-0.004140,-9.875141,-0.002751,0.017528,0.005952,-0.002893,0.017436,0.005314,0.009341,-0.027965,1.538582,0.718281,0.013081,-0.006796,0.695597,0.732611,0.731223,0.732311,0.731084,2.927228,-0.731812,-0.001901,0.020771,0.006345,
0.059892,0.010042,0.026628,-0.051105,-2.005782,0.023595,-0.100973,0.026659,0.021318,0.005700,-9.874173,-0.003823,0.018341,0.005627,-0.004121,0.019763,0.006171,0.009311,-0.027835,1.538550,0.718293,0.013025,-0.006760,0.695586,0.732362,0.731508,0.732304,0.731074,2.927249,-0.731820,-0.002013,0.022553,0.006355,
0.069855,0.009963,0.026720,-0.051341,-2.005586,0.023065,-0.098247,0.026098,0.015154,0.002098,-9.883373,-0.004128,0.019602,0.006238,-0.004532,0.019916,0.004858,0.009278,-0.027695,1.538525,0.718302,0.012964,-0.006721,0.695578,0.732457,0.731439,0.732362,0.731036,2.927294,-0.731822,-0.002012,0.023313,0.006360,
0.079910,0.010055,0.026810,-0.051566,-2.005394,0.022579,-0.095617,0.025476,0.012382,-0.000402,-9.871187,-0.004248,0.019661,0.005498,-0.003168,0.021737,0.005529,0.009244,-0.027553,1.538497,0.718313,0.012903,-0.006682,0.695568,0.732724,0.731173,0.732274,0.731119,2.927289,-0.731826,-0.001965,0.023830,0.006366,
0.089894,0.009984,0.026898,-0.051780,-2.005204,0.022106,-0.093019,0.024948,0.017106,0.002501,-9.878206,-0.003398,0.021007,0.006531,-0.002536,0.022044,0.005499,0.009217,-0.027401,1.538480,0.718321,0.012840,-0.006637,0.695562,0.732471,0.731433,0.731896,0.731502,2.927303,-0.731819,-0.001977,0.024823,0.006371,
0.099872,0.009978,0.027065,-0.052082,-2.004881,0.021174,-0.087763,0.023803,0.002421,-0.000376,-9.885943,-0.003735,0.024415,0.006603,-0.002417,0.024979,0.006384,0.009162,-0.027055,1.538443,0.718336,0.012700,-0.006532,0.695550,0.732260,0.731612,0.731870,0.731533,2.927274,-0.731823,-0.001937,0.025224,0.006375,
0.109882,0.010010,0.027145,-0.052218,-2.004723,0.020708,-0.085271,0.023179,0.003919,0.002868,-9.882788,-0.002306,0.024519,0.006218,-0.002170,0.024205,0.005563,0.009143,-0.026874,1.538424,0.718344,0.012630,-0.006474,0.695543,0.732550,0.731321,0.731974,0.731430,2.927275,-0.731805,-0.001978,0.026765,0.006381,
0.119874,0.009992,0.027223,-0.052344,-2.004569,0.020247,-0.082775,0.022612,0.011377,0.000518,-9.880916,-0.003731,0.026070,0.005834,-0.003353,0.026904,0.005135,0.009112,-0.026681,1.538404,0.718352,0.012552,-0.006416,0.695537,0.732136,0.731735,0.731929,0.731441,2.927240,-0.731792,-0.002035,0.027286,0.006385,
0.129891,0.010017,0.027370,-0.052489,-2.004287,0.019326,-0.077739,0.021492,0.006558,-0.001915,-9.876424,-0.003383,0.026442,0.006577,-0.003344,0.026343,0.006106,0.009057,-0.026284,1.538371,0.718367,0.012394,-0.006293,0.695526,0.732513,0.731331,0.732142,0.731191,2.927177,-0.731782,-0.002027,0.027754,0.006388,
0.139912,0.010021,0.027441,-0.052547,-2.004151,0.018880,-0.075276,0.020932,0.010500,0.001369,-9.875599,-0.003154,0.026229,0.004927,-0.003163,0.026740,0.004073,0.009031,-0.026090,1.538346,0.718377,0.012317,-0.006232,0.695517,0.732781,0.731056,0.732335,0.730968,2.927140,-0.731758,-0.002055,0.028804,0.006395,
0.149943,0.010031,0.027509,-0.052596,-2.004017,0.018424,-0.072863,0.020329,0.007877,0.003764,-9.880182,-0.003788,0.028064,0.005496,-0.004654,0.028710,0.006145,0.009000,-0.025880,1.538327,0.718385,0.012233,-0.006167,0.695511,0.732197,0.731648,0.732004,0.731207,2.927055,-0.731748,-0.002039,0.029074,0.006402,
0.159864,0.009921,0.027568,-0.052605,-2.003911,0.017934,-0.070399,0.019736,0.010859,0.002512,-9.873462,-0.005173,0.028528,0.006279,-0.004696,0.027819,0.006517,0.008957,-0.025666,1.538317,0.718390,0.012143,-0.006105,0.695508,0.732416,0.731370,0.732272,0.730934,2.926991,-0.731731,-0.002040,0.029495,0.006405,
0.169868,0.010004,0.027625,-0.052606,-2.003808,0.017496,-0.067967,0.019169,0.018442,-0.002469,-9.877382,-0.004251,0.028428,0.006909,-0.003706,0.028402,0.005726,0.008922,-0.025453,1.538310,0.718394,0.012056,-0.006041,0.695506,0.732519,0.731240,0.732048,0.731173,2.926980,-0.731708,-0.002010,0.029969,0.006407,
0.179974,0.010106,0.027680,-0.052597,-2.003706,0.017070,-0.065510,0.018579,0.007383,-0.005862,-9.865507,-0.003795,0.028729,0.006247,-0.004258,0.030408,0.005231,0.008891,-0.025238,1.538299,0.718399,0.011970,-0.005975,0.695503,0.732268,0.731438,0.732072,0.731054,2.926832,-0.731687,-0.001999,0.030447,0.006409,
0.189862,0.009888,0.027792,-0.052529,-2.003532,0.016314,-0.060775,0.017538,0.011508,-0.008794,-9.875198,-0.004394,0.030385,0.005680,-0.005155,0.031126,0.006102,0.008818,-0.024788,1.538276,0.718410,0.011788,-0.005839,0.695495,0.732095,0.731583,0.731965,0.731106,2.926749,-0.731661,-0.002036,0.031177,0.006409,
0.199906,0.010044,0.027850,-0.052470,-2.003458,0.015956,-0.058435,0.016968,0.006989,0.009709,-9.863635,-0.005256,0.031417,0.006719,-0.004117,0.031711,0.006759,0.008775,-0.024551,1.538273,0.718413,0.011689,-0.005768,0.695495,0.731983,0.731626,0.731898,0.731148,2.926655,-0.731619,-0.001917,0.031988,0.006414,
0.209841,0.009935,0.027959,-0.052326,-2.003339,0.015108,-0.053893,0.016017,0.009147,0.002841,-9.865185,-0.003272,0.032355,0.005694,-0.002802,0.032309,0.005231,0.008712,-0.024061,1.538263,0.718420,0.011497,-0.005614,0.695492,0.732220,0.731301,0.731683,0.731296,2.926500,-0.731594,-0.001769,0.032090,0.006416,
0.219867,0.010026,0.028022,-0.052232,-2.003315,0.014705,-0.051656,0.015454,0.016226,0.001169,-9.868670,-0.003565,0.033153,0.005797,-0.004489,0.033442,0.005339,0.008682,-0.023809,1.538259,0.718423,0.011398,-0.005534,0.695491,0.732009,0.731478,0.731776,0.731113,2.926376,-0.731544,-0.001811,0.032878,0.006416,
0.230019,0.010152,0.028082,-0.052130,-2.003293,0.014290,-0.049389,0.014924,0.006028,0.005738,-9.869911,-0.004168,0.033436,0.005887,-0.003634,0.033920,0.006566,0.008647,-0.023554,1.538255,0.718426,0.011297,-0.005455,0.695490,0.732045,0.731345,0.731809,0.730979,2.926177,-0.731506,-0.001799,0.033107,0.006417,
0.239897,0.009878,0.028140,-0.052020,-2.003272,0.013878,-0.047223,0.014384,0.007829,0.000145,-9.868254,-0.003722,0.033547,0.006742,-0.003179,0.033383,0.007071,0.008615,-0.023297,1.538260,0.718426,0.011196,-0.005374,0.695493,0.732200,0.731095,0.731838,0.730904,2.926037,-0.731474,-0.001732,0.033126,0.006420,
0.249857,0.009960,0.028257,-0.051772,-2.003258,0.013121,-0.042929,0.013338,0.002195,0.000257,-9.862226,-0.001815,0.034189,0.006547,-0.001586,0.034599,0.006414,0.008573,-0.022780,1.538276,0.718423,0.011001,-0.005202,0.695500,0.732244,0.730945,0.731504,0.731201,2.925895,-0.731437,-0.001725,0.033323,0.006419,
0.259838,0.009981,0.028316,-0.051634,-2.003264,0.012830,-0.040856,0.012835,0.005021,0.005373,-9.858240,-0.001321,0.034398,0.005600,-0.000839,0.034865,0.005750,0.008560,-0.022516,1.538276,0.718425,0.010905,-0.005112,0.695500,0.732158,0.730828,0.731347,0.731117,2.925450,-0.731363,-0.001760,0.033460,0.006420,
0.269936,0.010098,0.028373,-0.051489,-2.003271,0.012404,-0.038818,0.012358,0.004749,0.004934,-9.864876,-0.001232,0.034782,0.006573,-0.002504,0.035411,0.007016,0.008548,-0.022249,1.538285,0.718423,0.010807,-0.005020,0.695504,0.731931,0.731044,0.731447,0.731028,2.925450,-0.731316,-0.001846,0.034010,0.006414,
0.279876,0.009940,0.028491,-0.051158,-2.003351,0.011654,-0.034803,0.011277,0.005719,0.007297,-9.860640,-0.003152,0.035562,0.006339,-0.003190,0.035877,0.005841,0.008497,-0.021701,1.538311,0.718417,0.010599,-0.004841,0.695515,0.731681,0.731169,0.731580,0.730835,2.925264,-0.731278,-0.001963,0.034090,0.006412,
0.289848,0.009972,0.028551,-0.050971,-2.003407,0.011258,-0.032848,0.010766,0.005082,0.002005,-9.860975,-0.002368,0.037270,0.006319,-0.002283,0.038041,0.005908,0.008476,-0.021413,1.538321,0.718415,0.010491,-0.004745,0.695519,0.731524,0.731252,0.731135,0.731202,2.925113,-0.731184,-0.001918,0.033771,0.006414,
0.299964,0.010116,0.028610,-0.050778,-2.003463,0.010925,-0.030864,0.010271,0.005082,0.002005,-9.860975,-0.002770,0.037780,0.006344,-0.002283,0.038041,0.005908,0.008451,-0.021121,1.538333,0.718413,0.010381,-0.004649,0.695524,0.731524,0.731252,0.731135,0.731202,2.925113,-0.731130,-0.001994,0.033943,0.006409,
0.309910,0.009946,0.028666,-0.050578,-2.003518,0.010621,-0.028948,0.009727,0.004801,-0.003948,-9.871626,-0.002309,0.039281,0.007189,-0.002368,0.039309,0.006174,0.008429,-0.020816,1.538354,0.718408,0.010267,-0.004546,0.695532,0.731046,0.731407,0.730635,0.731432,2.924519,-0.731076,-0.002017,0.034113,0.006403,
0.320060,0.010150,0.028666,-0.050578,-2.003518,0.010621,-0.028948,0.009727,0.004801,-0.003948,-9.871626,-0.002309,0.039281,0.007189,-0.002368,0.039309,0.006174,0.008429,-0.020816,1.538354,0.718408,0.010267,-0.004546,0.695532,0.731046,0.731407,0.730635,0.731432,2.924519,-0.731025,-0.001980,0.033766,0.006403,
0.329845,0.009785,0.028882,-0.049878,-2.003777,0.009578,-0.023233,0.008249,0.011377,0.002441,-9.853149,-0.002224,0.037698,0.006212,-0.002735,0.037724,0.005796,0.008360,-0.019928,1.538393,0.718399,0.009934,-0.004251,0.695547,0.731574,0.730682,0.731028,0.730817,2.924101,-0.730964,-0.001938,0.033665,0.006400,
0.339831,0.009986,0.028949,-0.049631,-2.003876,0.009251,-0.021389,0.007725,0.006095,0.001478,-9.866379,-0.003777,0.036811,0.006116,-0.003542,0.036585,0.006262,0.008327,-0.019642,1.538407,0.718396,0.009822,-0.004160,0.695553,0.731400,0.730731,0.731420,0.730291,2.923841,-0.730859,-0.001921,0.033389,0.006399,
0.349872,0.010041,0.029014,-0.049378,-2.003974,0.008956,-0.019572,0.007230,0.002452,-0.003654,-9.858166,-0.004362,0.036533,0.006785,-0.003679,0.037781,0.005002,0.008288,-0.019359,1.538428,0.718390,0.009710,-0.004072,0.695561,0.731020,0.730899,0.731047,0.730470,2.923436,-0.730791,-0.001917,0.033764,0.006389,
0.359926,0.010054,0.029014,-0.049378,-2.003974,0.008956,-0.019572,0.007230,0.002452,-0.003654,-9.858166,-0.004362,0.036533,0.006785,-0.003679,0.037781,0.005002,0.008288,-0.019359,1.538428,0.718390,0.009710,-0.004072,0.695561,0.731020,0.730899,0.731047,0.730470,2.923436,-0.730734,-0.001770,0.033543,0.006388,
0.369909,0.009983,0.029171,-0.048805,-2.004224,0.008361,-0.016074,0.006298,0.005536,-0.003675,-9.867994,-0.005572,0.038096,0.005894,-0.005184,0.038754,0.006302,0.008205,-0.018766,1.538455,0.718384,0.009474,-0.003888,0.695572,0.730583,0.731114,0.730694,0.730546,2.922937,-0.730731,-0.001800,0.033732,0.006385,
0.379884,0.009975,0.029247,-0.048510,-2.004347,0.008070,-0.014371,0.005730,0.005536,-0.003675,-9.867994,-0.005182,0.038637,0.006584,-0.005184,0.038754,0.006302,0.008159,-0.018465,1.538475,0.718379,0.009353,-0.003795,0.695579,0.730583,0.731114,0.730694,0.730546,2.922937,-0.730609,-0.001468,0.033348,0.006383,
0.389832,0.009948,0.029401,-0.047899,-2.004620,0.007427,-0.010950,0.004807,0.014159,0.006144,-9.848632,-0.004110,0.038038,0.005913,-0.004048,0.038439,0.005449,0.008086,-0.017869,1.538512,0.718369,0.009119,-0.003607,0.695593,0.730690,0.730758,0.730506,0.730482,2.922435,-0.730538,-0.001305,0.033203,0.006380,
0.399884,0.010052,0.029401,-0.047899,-2.004620,0.007427,-0.010950,0.004807,0.014159,0.006144,-9.848632,-0.004110,0.038038,0.005913,-0.004048,0.038439,0.005449,0.008086,-0.017869,1.538512,0.718369,0.009119,-0.003607,0.695593,0.730690,0.730758,0.730506,0.730482,2.922435,-0.730534,-0.001336,0.033385,0.006376,
0.410081,0.010197,0.029630,-0.046940,-2.004993,0.006662,-0.006260,0.003656,0.005245,-0.002975,-9.844490,-0.004043,0.037752,0.007252,-0.004158,0.038107,0.006935,0.007980,-0.016978,1.538575,0.718351,0.008771,-0.003323,0.695617,0.730526,0.730516,0.730468,0.730109,2.921619,-0.730405,-0.001135,0.033164,0.006370,
0.419861,0.009780,0.029710,-0.046608,-2.005154,0.006382,-0.004685,0.003240,0.005245,-0.002975,-9.844490,-0.002754,0.038031,0.005616,-0.004158,0.038107,0.006935,0.007955,-0.016680,1.538593,0.718346,0.008659,-0.003225,0.695624,0.730526,0.730516,0.730468,0.730109,2.921619,-0.730242,-0.000679,0.032252,0.006365,
0.429856,0.009995,0.029787,-0.046271,-2.005313,0.006125,-0.003180,0.002811,0.002700,0.000344,-9.851987,-0.003407,0.037275,0.005407,-0.003166,0.037090,0.005990,0.007923,-0.016389,1.538609,0.718342,0.008546,-0.003131,0.695630,0.730387,0.730361,0.730210,0.730008,2.920966,-0.730172,-0.000635,0.032238,0.006358,
0.439953,0.010097,0.029787,-0.046271,-2.005313,0.006125,-0.003180,0.002811,0.002700,0.000344,-9.851987,-0.003407,0.037275,0.005407,-0.003166,0.037090,0.005990,0.007923,-0.016389,1.538609,0.718342,0.008546,-0.003131,0.695630,0.730387,0.730361,0.730210,0.730008,2.920966,-0.730105,-0.000529,0.032068,0.006355,
0.449877,0.009924,0.029933,-0.045584,-2.005624,0.005565,-0.000283,0.001988,0.001037,0.010462,-9.851538,-0.004192,0.037446,0.006275,-0.004488,0.037844,0.005358,0.007855,-0.015802,1.538659,0.718328,0.008318,-0.002944,0.695649,0.729880,0.730577,0.730120,0.729843,2.920420,-0.730102,-0.000556,0.032231,0.006351,
0.459917,0.010040,0.030090,-0.044849,-2.006013,0.004929,0.002648,0.001173,0.001037,0.010462,-9.851538,-0.002472,0.037841,0.005898,-0.004488,0.037844,0.005358,0.007797,-0.015212,1.538699,0.718316,0.008092,-0.002752,0.695664,0.729880,0.730577,0.730120,0.729843,2.920420,-0.729975,-0.000323,0.031645,0.006345,
0.469820,0.009903,0.030165,-0.044474,-2.006203,0.004661,0.003973,0.000772,0.000820,0.009224,-9.845249,-0.002476,0.037309,0.006569,-0.003077,0.036633,0.005998,0.007773,-0.014920,1.538725,0.718309,0.007981,-0.002655,0.695674,0.730099,0.730108,0.729898,0.729793,2.919898,-0.729827,-0.000242,0.031427,0.006335,
0.479882,0.010062,0.030165,-0.044474,-2.006203,0.004661,0.003973,0.000772,0.000820,0.009224,-9.845249,-0.002476,0.037309,0.006569,-0.003077,0.036633,0.005998,0.007773,-0.014920,1.538725,0.718309,0.007981,-0.002655,0.695674,0.730099,0.730108,0.729898,0.729793,2.919898,-0.729757,-0.000162,0.031018,0.006333,
0.489862,0.009980,0.030236,-0.044097,-2.006390,0.004346,0.005279,0.000420,0.003879,0.004965,-9.840496,-0.002968,0.036828,0.006305,-0.002626,0.036258,0.005117,0.007746,-0.014631,1.538749,0.718302,0.007871,-0.002561,0.695683,0.729885,0.730024,0.729740,0.729658,2.919306,-0.729755,-0.000190,0.031164,0.006329,
0.499831,0.009969,0.030441,-0.042910,-2.007010,0.003541,0.009076,-0.000548,-0.003729,-0.003164,-9.831326,-0.001766,0.035877,0.005474,-0.001820,0.035629,0.007136,0.007683,-0.013787,1.538819,0.718281,0.007555,-0.002279,0.695709,0.730035,0.729725,0.729772,0.729498,2.919030,-0.729554,-0.000015,0.030236,0.006322,
0.509907,0.010076,0.030441,-0.042910,-2.007010,0.003541,0.009076,-0.000548,0.002600,-0.000900,-9.836094,-0.001766,0.035877,0.005474,-0.000751,0.035550,0.005897,0.007683,-0.013787,1.538819,0.718281,0.007555,-0.002279,0.695709,0.729634,0.729720,0.729226,0.729635,2.918216,-0.729485,-0.000044,0.030148,0.006315,
0.519903,0.009996,0.030504,-0.042508,-2.007209,0.003265,0.010282,-0.000870,0.000823,-0.001645,-9.822948,-0.001087,0.035559,0.005526,-0.001975,0.036264,0.005257,0.007670,-0.013508,1.538838,0.718275,0.007454,-0.002183,0.695716,0.729587,0.729784,0.729260,0.729566,2.918197,-0.729483,-0.000072,0.030285,0.006312,
0.529980,0.010077,0.030569,-0.042091,-2.007445,0.003040,0.011514,-0.001115,0.007112,0.001565,-9.835360,-0.001754,0.035912,0.006035,-0.001573,0.035762,0.005418,0.007653,-0.013226,1.538862,0.718268,0.007349,-0.002088,0.695725,0.729429,0.729823,0.729208,0.729481,2.917941,-0.729416,-0.000108,0.030059,0.006308,
0.539838,0.009858,0.030749,-0.040823,-2.008125,0.002300,0.015056,-0.001898,0.007301,-0.002011,-9.825474,-0.002328,0.034751,0.006974,-0.001617,0.034801,0.005747,0.007602,-0.012404,1.538932,0.718247,0.007045,-0.001810,0.695750,0.729741,0.729520,0.729345,0.729326,2.917932,-0.729348,-0.000075,0.029846,0.006304,
0.549864,0.010026,0.030749,-0.040823,-2.008125,0.002300,0.015056,-0.001898,0.001353,0.003464,-9.833941,-0.002328,0.034751,0.006974,-0.001427,0.035300,0.006347,0.007602,-0.012404,1.538932,0.718247,0.007045,-0.001810,0.695750,0.729265,0.729695,0.729168,0.729265,2.917393,-0.729148,-0.000032,0.029132,0.006294,
0.559891,0.010027,0.030817,-0.040394,-2.008368,0.002048,0.016182,-0.002179,0.013743,-0.001173,-9.824764,-0.001973,0.034784,0.006195,-0.002089,0.033548,0.005916,0.007582,-0.012131,1.538957,0.718239,0.006943,-0.001719,0.695759,0.729424,0.729527,0.729335,0.729106,2.917393,-0.729146,-0.000055,0.029255,0.006290,
0.569885,0.009994,0.030882,-0.039961,-2.008606,0.001770,0.017340,-0.002450,0.003576,0.006941,-9.822703,-0.001838,0.033651,0.006154,-0.002127,0.034039,0.005422,0.007564,-0.011867,1.538980,0.718232,0.006845,-0.001631,0.695768,0.729280,0.729277,0.729083,0.728953,2.916592,-0.729074,-0.000031,0.029040,0.006286,
0.579862,0.009977,0.031073,-0.038648,-2.009327,0.000957,0.020413,-0.003172,0.003225,0.010633,-9.824165,-0.002198,0.034506,0.005343,-0.002954,0.034377,0.005671,0.007499,-0.011064,1.539049,0.718211,0.006542,-0.001364,0.695793,0.729052,0.729497,0.729037,0.728999,2.916584,-0.729003,-0.000032,0.028900,0.006281,
0.589865,0.010003,0.031073,-0.038648,-2.009327,0.000957,0.020413,-0.003172,-0.001272,0.001695,-9.821417,-0.002198,0.034506,0.005343,-0.001543,0.033505,0.005186,0.007499,-0.011064,1.539049,0.718211,0.006542,-0.001364,0.695793,0.728948,0.729342,0.728674,0.729048,2.916012,-0.728801,0.000081,0.027925,0.006276,
0.599973,0.010108,0.031140,-0.038207,-2.009572,0.000720,0.021364,-0.003368,-0.001121,-0.000770,-9.816628,-0.002286,0.033343,0.005581,-0.002986,0.033353,0.005337,0.007477,-0.010802,1.539070,0.718205,0.006443,-0.001278,0.695801,0.729006,0.729297,0.728978,0.728730,2.916012,-0.728733,0.000094,0.027787,0.006268,
0.609848,0.009875,0.031205,-0.037764,-2.009813,0.000498,0.022355,-0.003578,0.011454,0.000288,-9.825653,-0.002626,0.033870,0.006672,-0.002571,0.034032,0.005694,0.007452,-0.010536,1.539100,0.718195,0.006341,-0.001191,0.695812,0.728537,0.729345,0.728517,0.728805,2.915203,-0.728731,0.000068,0.027898,0.006264,
0.619834,0.009986,0.031408,-0.036415,-2.010524,-0.000243,0.025028,-0.004077,-0.004260,0.003260,-9.815401,-0.002120,0.033074,0.006410,-0.000395,0.034039,0.006512,0.007402,-0.009740,1.539184,0.718169,0.006046,-0.000922,0.695842,0.728689,0.729030,0.728160,0.729045,2.914924,-0.728601,0.000180,0.027243,0.006257,
0.629919,0.010085,0.031408,-0.036415,-2.010524,-0.000243,0.025028,-0.004077,0.004275,0.003373,-9.817291,-0.002120,0.033074,0.006410,-0.002111,0.031766,0.006022,0.007402,-0.009740,1.539184,0.718169,0.006046,-0.000922,0.695842,0.728573,0.728865,0.728616,0.728349,2.914404,-0.728482,0.000219,0.026508,0.006250,
0.639833,0.009914,0.031563,-0.035499,-2.010999,-0.000696,0.026712,-0.004455,-0.001411,0.001366,-9.815725,-0.001124,0.033203,0.006706,-0.002043,0.031538,0.006304,0.007368,-0.009230,1.539240,0.718151,0.005857,-0.000751,0.695862,0.728635,0.728789,0.728531,0.728449,2.914404,-0.728479,0.000167,0.026712,0.006243,
0.649865,0.010032,0.031563,-0.035499,-2.010999,-0.000696,0.026712,-0.004455,0.004282,-0.003161,-9.793633,-0.001124,0.033203,0.006706,-0.001538,0.030421,0.005787,0.007368,-0.009230,1.539240,0.718151,0.005857,-0.000751,0.695862,0.728645,0.728526,0.728364,0.728381,2.913916,-0.728353,0.000258,0.026070,0.006236,
0.659854,0.009989,0.031718,-0.034580,-2.011477,-0.001058,0.028311,-0.004507,-0.000852,-0.005856,-9.801157,-0.001600,0.028831,0.006386,-0.001248,0.028804,0.005850,0.007337,-0.008761,1.539292,0.718134,0.005683,-0.000593,0.695881,0.728824,0.728094,0.728787,0.727705,2.913410,-0.728351,0.000235,0.026169,0.006232,
0.669847,0.009993,0.031799,-0.034121,-2.011716,-0.001219,0.029063,-0.004563,0.001419,-0.000598,-9.802690,-0.001304,0.029400,0.006370,-0.001260,0.029396,0.005715,0.007323,-0.008530,1.539320,0.718125,0.005597,-0.000515,0.695891,0.728499,0.728412,0.728301,0.728193,2.913404,-0.728198,0.000442,0.025494,0.006220,
0.679896,0.010049,0.031877,-0.033661,-2.011950,-0.001407,0.029804,-0.004632,0.003835,-0.001658,-9.806079,-0.001738,0.029550,0.006023,-0.002168,0.029877,0.005677,0.007305,-0.008297,1.539346,0.718117,0.005510,-0.000437,0.695901,0.728230,0.728683,0.728298,0.728194,2.913404,-0.728197,0.000425,0.025583,0.006217,
0.689849,0.009953,0.031952,-0.033199,-2.012179,-0.001597,0.030558,-0.004713,0.000840,0.001419,-9.798756,-0.001610,0.029163,0.005901,-0.000592,0.028642,0.006218,0.007288,-0.008067,1.539368,0.718110,0.005424,-0.000361,0.695909,0.728389,0.728223,0.728180,0.728000,2.912793,-0.728144,0.000492,0.025367,0.006212,
0.699956,0.010107,0.032034,-0.032750,-2.012416,-0.001768,0.031214,-0.004735,0.004614,0.003359,-9.804690,-0.001086,0.028680,0.006499,-0.001546,0.030232,0.005054,0.007275,-0.007841,1.539397,0.718101,0.005341,-0.000284,0.695919,0.728013,0.728591,0.728038,0.728146,2.912788,-0.728091,0.000549,0.025177,0.006208,
0.710130,0.010174,0.032187,-0.031849,-2.012874,-0.002072,0.032443,-0.004813,-0.008265,-0.015167,-9.796400,-0.001546,0.030008,0.005279,-0.001548,0.030102,0.005585,0.007240,-0.007369,1.539440,0.718087,0.005164,-0.000127,0.695934,0.727862,0.728568,0.727703,0.728229,2.912363,-0.727943,0.000809,0.024102,0.006201,
0.719864,0.009734,0.032260,-0.031397,-2.013095,-0.002201,0.033026,-0.004814,0.004015,0.000810,-9.797379,-0.001394,0.030304,0.005763,-0.002515,0.030307,0.005462,0.007225,-0.007130,1.539464,0.718079,0.005075,-0.000046,0.695943,0.727478,0.728667,0.727548,0.728080,2.911772,-0.727941,0.000775,0.024256,0.006194,
0.729905,0.010041,0.032348,-0.030948,-2.013321,-0.002388,0.033632,-0.004808,0.000880,0.004360,-9.787889,-0.002138,0.030080,0.005845,-0.001252,0.029684,0.005185,0.007204,-0.006892,1.539490,0.718071,0.004985,0.000032,0.695952,0.727654,0.728501,0.727649,0.727968,2.911772,-0.727896,0.000859,0.023881,0.006189,
0.739954,0.010049,0.032515,-0.030049,-2.013754,-0.002729,0.034615,-0.004654,-0.007434,0.001611,-9.787094,-0.002679,0.029402,0.006053,-0.002163,0.029463,0.005597,0.007160,-0.006425,1.539544,0.718053,0.004806,0.000185,0.695972,0.727534,0.728524,0.727776,0.727749,2.911583,-0.727850,0.000957,0.023529,0.006185,
0.749850,0.009896,0.032594,-0.029599,-2.013961,-0.002949,0.035075,-0.004646,-0.004219,0.002370,-9.796181,-0.001802,0.029236,0.006930,-0.001831,0.027690,0.006535,0.007141,-0.006193,1.539576,0.718042,0.004719,0.000262,0.695983,0.727759,0.728174,0.727695,0.727774,2.911401,-0.727777,0.001206,0.022585,0.006181,
0.759888,0.010038,0.032680,-0.029163,-2.014178,-0.003116,0.035535,-0.004644,-0.002673,-0.007793,-9.794692,-0.002429,0.027774,0.006579,-0.001606,0.028724,0.005922,0.007118,-0.005973,1.539606,0.718033,0.004634,0.000332,0.695994,0.727507,0.728258,0.727722,0.727620,2.911108,-0.727733,0.001215,0.022304,0.006168,
0.769909,0.010021,0.032763,-0.028726,-2.014393,-0.003216,0.035966,-0.004626,0.006087,-0.007987,-9.790081,-0.001164,0.028495,0.006495,-0.001203,0.028297,0.006558,0.007104,-0.005747,1.539637,0.718022,0.004550,0.000409,0.696005,0.727525,0.728227,0.727356,0.728000,2.911108,-0.727689,0.001336,0.021938,0.006163,
0.779915,0.010006,0.032921,-0.027851,-2.014807,-0.003510,0.036803,-0.004456,-0.008613,0.002314,-9.780207,-0.000792,0.027170,0.006970,-0.000845,0.026848,0.007054,0.007079,-0.005309,1.539706,0.717999,0.004389,0.000558,0.696030,0.727532,0.728015,0.727469,0.727742,2.910757,-0.727647,0.001442,0.021517,0.006157,
0.789872,0.009957,0.033006,-0.027434,-2.015023,-0.003713,0.037142,-0.004329,-0.003788,0.000613,-9.785769,-0.001398,0.027148,0.006460,0.000139,0.026337,0.004385,0.007064,-0.005093,1.539739,0.717988,0.004308,0.000630,0.696041,0.727382,0.728060,0.727436,0.727709,2.910587,-0.727578,0.001598,0.020619,0.006150,
0.799878,0.010006,0.033088,-0.027017,-2.015234,-0.003872,0.037506,-0.004242,0.007497,-0.006748,-9.786383,0.000110,0.025331,0.005062,-0.001412,0.024405,0.006230,0.007060,-0.004891,1.539762,0.717981,0.004237,0.000701,0.696050,0.727779,0.727560,0.727666,0.727308,2.910313,-0.727543,0.001615,0.020285,0.006137,
0.809890,0.010012,0.033166,-0.026600,-2.015439,-0.004009,0.037870,-0.004153,0.000561,0.000481,-9.788185,-0.001164,0.024005,0.006459,-0.001009,0.023547,0.005800,0.007047,-0.004700,1.539798,0.717969,0.004166,0.000765,0.696062,0.727669,0.727597,0.727835,0.727072,2.910172,-0.727508,0.001639,0.019879,0.006136,
0.819874,0.009984,0.033315,-0.025779,-2.015834,-0.004338,0.038540,-0.004025,0.004058,-0.002781,-9.788252,-0.001115,0.023959,0.006625,-0.000389,0.024272,0.006097,0.007018,-0.004321,1.539867,0.717946,0.004023,0.000891,0.696087,0.727239,0.727939,0.727471,0.727384,2.910033,-0.727474,0.001712,0.019586,0.006129,
0.829903,0.010029,0.033384,-0.025376,-2.016024,-0.004533,0.038849,-0.003941,-0.007502,0.001127,-9.783410,-0.000201,0.024479,0.006463,-0.001528,0.024072,0.005669,0.007012,-0.004125,1.539902,0.717934,0.003953,0.000960,0.696099,0.727162,0.727936,0.727202,0.727597,2.909896,-0.727404,0.001808,0.019004,0.006113,SYSTEM_IDENTIFICATION
0.840725,0.010822,0.033450,-0.024973,-2.016209,-0.004703,0.039026,-0.003844,-0.010332,-0.006211,-9.783971,-0.001364,0.024129,0.006185,0.000441,0.022794,0.006078,0.006998,-0.003933,1.539935,0.717923,0.003881,0.001024,0.696111,0.727123,0.727835,0.727266,0.727396,2.909620,-0.727372,0.001785,0.018631,0.006106,SYSTEM_IDENTIFICATION
0.849857,0.009132,0.033512,-0.024570,-2.016388,-0.004875,0.039235,-0.003725,0.003069,-0.001578,-9.781635,0.000623,0.022028,0.006351,0.000961,0.021498,0.005178,0.006999,-0.003756,1.539970,0.717911,0.003820,0.001088,0.696124,0.727757,0.727139,0.727443,0.727150,2.909489,-0.727342,0.001824,0.018182,0.006100,SYSTEM_IDENTIFICATION
0.859873,0.010016,0.033612,-0.023847,-2.016783,-0.005265,0.039644,-0.003478,-0.003706,-0.002352,-9.781151,0.001822,0.021189,0.006582,0.001582,0.021385,0.006746,0.007014,-0.003415,1.540043,0.717886,0.003706,0.001215,0.696150,0.727592,0.727254,0.727150,0.727377,2.909372,-0.727316,0.001769,0.017848,0.006093,SYSTEM_IDENTIFICATION
0.869881,0.010008,0.033656,-0.023485,-2.016972,-0.005484,0.039798,-0.003351,0.000806,0.000560,-9.776851,0.000851,0.021982,0.005471,0.001068,0.020838,0.004594,0.007018,-0.003238,1.540077,0.717875,0.003646,0.001280,0.696162,0.727169,0.727635,0.727071,0.727389,2.909264,-0.727257,0.001533,0.017129,0.006079,SYSTEM_IDENTIFICATION
0.879859,0.009978,0.033698,-0.023122,-2.017154,-0.005697,0.039977,-0.003169,0.003159,0.003396,-9.774424,0.000611,0.020885,0.005374,0.000824,0.021279,0.005518,0.007020,-0.003070,1.540110,0.717863,0.003588,0.001342,0.696174,0.727133,0.727584,0.727105,0.727207,2.909029,-0.727229,0.001410,0.016703,0.006073,SYSTEM_IDENTIFICATION
0.889904,0.010045,0.033736,-0.022760,-2.017335,-0.005936,0.040152,-0.003008,0.000549,0.000719,-9.787017,0.001217,0.021103,0.006094,0.001655,0.021501,0.006297,0.007027,-0.002900,1.540151,0.717850,0.003532,0.001405,0.696188,0.727145,0.727511,0.726776,0.727484,2.908916,-0.727207,0.001300,0.016341,0.006066,SYSTEM_IDENTIFICATION
0.900069,0.010165,0.033796,-0.022127,-2.017742,-0.006333,0.040309,-0.002691,-0.002222,-0.003817,-9.776194,0.000784,0.022078,0.006297,0.000955,0.021628,0.006441,0.007039,-0.002545,1.540230,0.717822,0.003413,0.001537,0.696216,0.726693,0.727918,0.726576,0.727643,2.908831,-0.727185,0.001162,0.015936,0.006062,SYSTEM_IDENTIFICATION
0.909843,0.009774,0.033821,-0.021810,-2.017936,-0.006553,0.040365,-0.002623,0.004158,-0.000015,-9.780932,0.001879,0.021440,0.005436,0.000652,0.021003,0.004752,0.007052,-0.002372,1.540267,0.717810,0.003357,0.001604,0.696229,0.727048,0.727531,0.726719,0.727441,2.908739,-0.727128,0.000897,0.014840,0.006050,SYSTEM_IDENTIFICATION
0.919915,0.010072,0.033842,-0.021492,-2.018124,-0.006779,0.040432,-0.002491,-0.001821,-0.002796,-9.777769,0.000638,0.020670,0.005720,0.001245,0.019314,0.006064,0.007055,-0.002204,1.540306,0.717797,0.003299,0.001665,0.696243,0.727018,0.727461,0.726853,0.727182,2.908514,-0.727094,0.000659,0.014356,0.006037,SYSTEM_IDENTIFICATION
0.929864,0.009949,0.033863,-0.021211,-2.018340,-0.006974,0.040435,-0.002324,0.001027,-0.010647,-9.772469,0.001497,0.019458,0.005876,0.001535,0.019588,0.005619,0.007065,-0.002046,1.540347,0.717782,0.003248,0.001725,0.696258,0.727176,0.727234,0.726726,0.727240,2.908376,-0.727067,0.000530,0.013843,0.006032,SYSTEM_IDENTIFICATION
0.939906,0.010042,0.033880,-0.020930,-2.018548,-0.007136,0.040430,-0.002147,-0.000774,0.002707,-9.768803,0.001383,0.018763,0.006136,0.000507,0.020406,0.006024,0.007074,-0.001893,1.540394,0.717766,0.003198,0.001784,0.696275,0.726820,0.727535,0.726622,0.727292,2.908268,-0.727037,0.000337,0.013337,0.006021,SYSTEM_IDENTIFICATION
0.950401,0.010495,0.033905,-0.020366,-2.018929,-0.007665,0.040387,-0.001761,-0.000774,0.002707,-9.768803,0.001661,0.018317,0.005668,0.000507,0.020406,0.006024,0.007090,-0.001583,1.540485,0.717735,0.003095,0.001900,0.696307,0.726820,0.727535,0.726622,0.727292,2.908268,-0.727037,0.000338,0.013337,0.006021,SYSTEM_IDENTIFICATION
0.959968,0.009567,0.033920,-0.020108,-2.019145,-0.007926,0.040262,-0.001563,-0.003391,0.010764,-9.772511,0.001942,0.017416,0.006494,0.001583,0.017156,0.005999,0.007104,-0.001440,1.540536,0.717718,0.003051,0.001956,0.696325,0.727267,0.727014,0.726711,0.727154,2.908147,-0.726964,-0.000188,0.011754,0.006002,SYSTEM_IDENTIFICATION
0.969833,0.009865,0.033931,-0.019850,-2.019355,-0.008238,0.040176,-0.001363,-0.001046,0.007930,-9.772939,0.001323,0.016788,0.006236,0.002325,0.016155,0.006578,0.007113,-0.001302,1.540584,0.717701,0.003006,0.002009,0.696342,0.727104,0.727011,0.726650,0.727092,2.907858,-0.726937,-0.000460,0.011221,0.005988,SYSTEM_IDENTIFICATION
0.979911,0.010078,0.033938,-0.019591,-2.019556,-0.008528,0.040095,-0.001177,0.000938,0.000688,-9.768795,0.001777,0.015820,0.006617,0.002940,0.017343,0.006300,0.007125,-0.001172,1.540635,0.717684,0.002965,0.002060,0.696360,0.726736,0.727305,0.726046,0.727658,2.907746,-0.726936,-0.000484,0.011224,0.005985,SYSTEM_IDENTIFICATION
0.989850,0.009939,0.033946,-0.019091,-2.019979,-0.008877,0.039937,-0.000801,-0.000268,-0.002711,-9.771303,0.000548,0.017550,0.005829,0.000026,0.016519,0.005768,0.007143,-0.000886,1.540727,0.717652,0.002871,0.002169,0.696393,0.726402,0.727605,0.726245,0.727392,2.907643,-0.726911,-0.000710,0.010716,0.005979,SYSTEM_IDENTIFICATION
0.999873,0.010023,0.033949,-0.018849,-2.020199,-0.009120,0.039813,-0.000596,-0.001237,0.001873,-9.767328,0.000186,0.016338,0.006162,0.000404,0.016310,0.005845,0.007143,-0.000751,1.540776,0.717635,0.002824,0.002218,0.696410,0.726821,0.727180,0.726535,0.727107,2.907643,-0.726831,-0.001313,0.009172,0.005954,SYSTEM_IDENTIFICATION
1.010266,0.010393,0.033947,-0.018607,-2.020405,-0.009366,0.039676,-0.000318,-0.007463,-0.000403,-9.770575,0.000628,0.014721,0.006070,0.000934,0.015340,0.006336,0.007147,-0.000629,1.540825,0.717618,0.002783,0.002263,0.696428,0.726997,0.726946,0.726489,0.727109,2.907542,-0.726830,-0.001347,0.009185,0.005949,SYSTEM_IDENTIFICATION
1.019886,0.009620,0.033942,-0.018366,-2.020602,-0.009605,0.039492,-0.000134,-0.003390,-0.004025,-9.762505,0.000613,0.014691,0.006316,0.000311,0.013358,0.005617,0.007151,-0.000507,1.540877,0.717600,0.002742,0.002308,0.696446,0.727017,0.726815,0.726529,0.726961,2.907321,-0.726784,-0.001692,0.008182,0.005933,SYSTEM_IDENTIFICATION
1.030887,0.011001,0.033933,-0.017922,-2.021032,-0.010009,0.039097,0.000368,-0.003390,-0.004025,-9.762505,-0.000826,0.013673,0.005575,0.000311,0.013358,0.005617,0.007147,-0.000285,1.540968,0.717569,0.002663,0.002387,0.696479,0.727017,0.726815,0.726529,0.726961,2.907321,-0.726784,-0.001715,0.008182,0.005930,SYSTEM_IDENTIFICATION
1.039834,0.008947,0.033924,-0.017701,-2.021235,-0.010241,0.038909,0.000597,-0.000130,-0.004477,-9.768214,0.000225,0.012187,0.006184,-0.000628,0.012589,0.006549,0.007148,-0.000183,1.541016,0.717552,0.002628,0.002424,0.696496,0.726819,0.726928,0.726337,0.727053,2.907136,-0.726713,-0.002154,0.006740,0.005908,SYSTEM_IDENTIFICATION
1.049850,0.010016,0.033924,-0.017701,-2.021235,-0.010241,0.038909,0.000597,-0.000130,-0.004477,-9.768214,0.000225,0.012187,0.006184,-0.000628,0.012589,0.006549,0.007148,-0.000183,1.541016,0.717552,0.002628,0.002424,0.696496,0.726819,0.726928,0.726337,0.727053,2.907136,-0.726713,-0.002195,0.006725,0.005902,SYSTEM_IDENTIFICATION
1.059887,0.010037,0.033858,-0.017070,-2.021809,-0.011026,0.038313,0.001300,0.003921,0.005565,-9.765192,-0.002950,0.012484,0.006020,-0.003014,0.012267,0.005495,0.007093,0.000120,1.541174,0.717498,0.002503,0.002513,0.696552,0.726030,0.727511,0.726190,0.727120,2.906851,-0.726691,-0.002376,0.006308,0.005893,SYSTEM_IDENTIFICATION
1.070002,0.010115,0.033826,-0.016865,-2.021978,-0.011309,0.038085,0.001535,0.003921,0.005565,-9.765192,-0.002686,0.010344,0.005846,-0.003014,0.012267,0.005495,0.007070,0.000207,1.541222,0.717481,0.002464,0.002537,0.696569,0.726030,0.727511,0.726190,0.727120,2.906851,-0.726648,-0.002557,0.005494,0.005878,SYSTEM_IDENTIFICATION
1.079879,0.009877,0.033791,-0.016661,-2.022139,-0.011496,0.037862,0.001879,-0.002847,-0.001451,-9.751848,-0.002453,0.009164,0.004947,-0.003395,0.008566,0.004294,0.007050,0.000285,1.541264,0.717467,0.002430,0.002558,0.696584,0.726750,0.726719,0.726581,0.726544,2.906594,-0.726617,-0.002793,0.004630,0.005856,SYSTEM_IDENTIFICATION
1.089841,0.009962,0.033791,-0.016661,-2.022139,-0.011496,0.037862,0.001879,-0.007011,-0.002944,-9.773274,-0.002453,0.009164,0.004947,-0.002602,0.007262,0.006952,0.007050,0.000285,1.541264,0.717467,0.002430,0.002558,0.696584,0.726750,0.726719,0.726581,0.726544,2.906594,-0.726613,-0.002864,0.004297,0.005848,SYSTEM_IDENTIFICATION
1.099881,0.010040,0.033670,-0.016291,-2.022475,-0.011990,0.037310,0.002387,-0.006098,-0.010638,-9.766516,-0.002484,0.006683,0.006811,-0.004094,0.005240,0.005357,0.007001,0.000412,1.541366,0.717431,0.002368,0.002587,0.696621,0.726805,0.726578,0.726841,0.726227,2.906451,-0.726613,-0.002885,0.004284,0.005846,SYSTEM_IDENTIFICATION
1.110006,0.010125,0.033540,-0.015923,-2.022781,-0.012363,0.036780,0.002902,-0.006098,-0.010638,-9.766516,-0.003159,0.007043,0.005735,-0.004094,0.005240,0.005357,0.006942,0.000525,1.541457,0.717400,0.002307,0.002606,0.696653,0.726805,0.726578,0.726841,0.726227,2.906451,-0.726605,-0.002943,0.003978,0.005839,SYSTEM_IDENTIFICATION
1.119940,0.009934,0.033454,-0.015763,-2.022931,-0.012597,0.036570,0.003104,0.007979,-0.005458,-9.776913,-0.003499,0.007871,0.006566,-0.003521,0.007982,0.005893,0.006914,0.000592,1.541508,0.717382,0.002274,0.002621,0.696672,0.726236,0.727121,0.726115,0.726947,2.906418,-0.726566,-0.003173,0.003168,0.005812,SYSTEM_IDENTIFICATION
1.129881,0.009941,0.033454,-0.015763,-2.022931,-0.012597,0.036570,0.003104,0.007979,-0.005458,-9.776913,-0.003499,0.007871,0.006566,-0.003521,0.007982,0.005893,0.006914,0.000592,1.541508,0.717382,0.002274,0.002621,0.696672,0.726236,0.727121,0.726115,0.726947,2.906418,-0.726552,-0.003306,0.002823,0.005801,SYSTEM_IDENTIFICATION
1.140038,0.010157,0.033366,-0.015603,-2.023074,-0.012873,0.036344,0.003376,-0.002274,0.002761,-9.764137,-0.003679,0.006361,0.006227,-0.004010,0.006197,0.005092,0.006884,0.000648,1.541560,0.717364,0.002243,0.002631,0.696690,0.726483,0.726789,0.726418,0.726575,2.906265,-0.726552,-0.003332,0.002809,0.005799,SYSTEM_IDENTIFICATION
1.149866,0.009828,0.033275,-0.015442,-2.023210,-0.013161,0.036049,0.003633,-0.002272,0.007436,-9.763039,-0.003899,0.006493,0.005351,-0.003506,0.005781,0.005388,0.006853,0.000705,1.541604,0.717349,0.002212,0.002640,0.696706,0.726493,0.726774,0.726325,0.726617,2.906208,-0.726545,-0.003442,0.002557,0.005791,SYSTEM_IDENTIFICATION
1.159840,0.009974,0.033085,-0.015122,-2.023460,-0.013728,0.035496,0.004187,0.000922,-0.010241,-9.763466,-0.003601,0.005986,0.006150,-0.004741,0.005111,0.005329,0.006795,0.000806,1.541701,0.717315,0.002156,0.002656,0.696741,0.726316,0.726938,0.726215,0.726713,2.906181,-0.726539,-0.003585,0.002243,0.005783,SYSTEM_IDENTIFICATION
1.169888,0.010048,0.032965,-0.014996,-2.023592,-0.013909,0.035203,0.004502,0.000029,-0.003693,-9.753103,-0.004854,0.004184,0.005922,-0.005154,0.003438,0.006559,0.006756,0.000844,1.541750,0.717298,0.002129,0.002656,0.696758,0.726618,0.726611,0.726786,0.726140,2.906156,-0.726534,-0.003923,0.001684,0.005762,SYSTEM_IDENTIFICATION
1.179856,0.009968,0.032845,-0.014870,-2.023716,-0.014147,0.034877,0.004824,-0.001561,-0.003875,-9.767578,-0.005292,0.003326,0.006385,-0.004582,0.002116,0.005494,0.006714,0.000876,1.541806,0.717279,0.002103,0.002653,0.696778,0.726729,0.726488,0.726688,0.726231,2.906136,-0.726533,-0.003985,0.001423,0.005752,SYSTEM_IDENTIFICATION
1.189871,0.010015,0.032600,-0.014618,-2.023955,-0.014588,0.034207,0.005324,-0.005353,-0.006773,-9.761808,-0.005495,0.002565,0.006039,-0.005644,0.002851,0.005298,0.006633,0.000925,1.541897,0.717247,0.002056,0.002643,0.696811,0.726558,0.726655,0.726572,0.726345,2.906130,-0.726534,-0.004044,0.001204,0.005743,SYSTEM_IDENTIFICATION
1.200116,0.010245,0.032450,-0.014520,-2.024094,-0.014817,0.033956,0.005576,0.002242,-0.003933,-9.766849,-0.006028,0.002889,0.006277,-0.005308,0.002108,0.006634,0.006586,0.000954,1.541947,0.717230,0.002029,0.002636,0.696829,0.726330,0.726865,0.726485,0.726455,2.906135,-0.726534,-0.004071,0.001176,0.005742,SYSTEM_IDENTIFICATION
1.209875,0.009759,0.032299,-0.014421,-2.024224,-0.015064,0.033642,0.005822,0.005096,0.004394,-9.765260,-0.005057,0.002419,0.006774,-0.005028,0.003444,0.005390,0.006546,0.000978,1.542004,0.717210,0.002007,0.002632,0.696849,0.726434,0.726733,0.726269,0.726698,2.906134,-0.726518,-0.004322,0.000542,0.005714,SYSTEM_IDENTIFICATION
1.219854,0.009979,0.032146,-0.014321,-2.024348,-0.015353,0.033330,0.006082,-0.008725,-0.001999,-9.769400,-0.004694,0.003114,0.005738,-0.003146,0.002481,0.005549,0.006510,0.001009,1.542053,0.717193,0.001983,0.002630,0.696867,0.726673,0.726473,0.726039,0.726888,2.906071,-0.726511,-0.004466,0.000310,0.005703,SYSTEM_IDENTIFICATION
1.229858,0.010004,0.031992,-0.014220,-2.024463,-0.015601,0.032972,0.006332,-0.003097,0.002170,-9.762338,-0.003009,0.002431,0.005533,-0.003939,0.001715,0.005631,0.006487,0.001034,1.542099,0.717177,0.001966,0.002631,0.696883,0.726610,0.726549,0.726146,0.726741,2.906046,-0.726508,-0.004656,0.000050,0.005694,SYSTEM_IDENTIFICATION
1.240008,0.010150,0.031606,-0.014053,-2.024713,-0.016148,0.032304,0.006923,0.002000,-0.011223,-9.758924,-0.004224,0.001142,0.005712,-0.005048,0.001261,0.006638,0.006426,0.001071,1.542194,0.717144,0.001931,0.002623,0.696918,0.726565,0.726584,0.726526,0.726355,2.906030,-0.726504,-0.004896,-0.000211,0.005685,SYSTEM_IDENTIFICATION
1.249903,0.009895,0.031414,-0.013968,-2.024826,-0.016367,0.031986,0.007216,0.001395,-0.003122,-9.765394,-0.005065,0.001040,0.007012,-0.005029,0.000956,0.006648,0.006388,0.001084,1.542255,0.717123,0.001913,0.002615,0.696939,0.726473,0.726653,0.726500,0.726392,2.906018,-0.726502,-0.005425,-0.000675,0.005667,SYSTEM_IDENTIFICATION
1.259874,0.009971,0.030989,-0.013818,-2.025033,-0.016892,0.031261,0.007693,-0.005248,-0.000970,-9.769865,-0.005916,-0.000143,0.005297,-0.005981,-0.000152,0.005052,0.006311,0.001091,1.542341,0.717093,0.001882,0.002590,0.696970,0.726581,0.726538,0.726591,0.726298,2.906008,-0.726503,-0.005604,-0.000868,0.005655,SYSTEM_IDENTIFICATION
1.269863,0.009989,0.030758,-0.013752,-2.025137,-0.017199,0.030974,0.007962,0.005251,0.002363,-9.763088,-0.005412,0.000635,0.005388,-0.005055,0.001112,0.005185,0.006270,0.001102,1.542385,0.717078,0.001864,0.002580,0.696986,0.726355,0.726786,0.726293,0.726578,2.906012,-0.726500,-0.006019,-0.001157,0.005642,SYSTEM_IDENTIFICATION
1.279884,0.010021,0.030525,-0.013684,-2.025234,-0.017486,0.030660,0.008327,-0.003759,-0.004321,-9.769485,-0.004395,0.000279,0.006671,-0.006222,0.000134,0.006386,0.006237,0.001109,1.542440,0.717059,0.001850,0.002571,0.697006,0.726533,0.726572,0.726220,0.726674,2.906000,-0.726501,-0.006319,-0.001373,0.005632,SYSTEM_IDENTIFICATION
1.289889,0.010005,0.030293,-0.013616,-2.025323,-0.017729,0.030311,0.008566,0.008907,-0.004604,-9.756519,-0.006041,-0.000216,0.006725,-0.004731,-0.000218,0.006581,0.006191,0.001112,1.542494,0.717040,0.001832,0.002556,0.697025,0.726475,0.726612,0.726406,0.726509,2.906003,-0.726511,-0.006657,-0.001577,0.005620,SYSTEM_IDENTIFICATION
1.299872,0.009983,0.030031,-0.013576,-2.025434,-0.017998,0.030016,0.008882,-0.003278,0.001217,-9.769173,-0.005048,-0.000220,0.006928,-0.005810,-0.000211,0.005851,0.006153,0.001115,1.542551,0.717020,0.001817,0.002544,0.697046,0.726531,0.726527,0.726256,0.726730,2.906043,-0.726512,-0.006836,-0.001724,0.005611,SYSTEM_IDENTIFICATION
1.309981,0.010109,0.029769,-0.013535,-2.025536,-0.018314,0.029666,0.009114,0.000387,0.003056,-9.765012,-0.005743,-0.000246,0.006203,-0.007262,-0.000845,0.006239,0.006110,0.001119,1.542603,0.717002,0.001800,0.002530,0.697065,0.726381,0.726661,0.726544,0.726463,2.906049,-0.726516,-0.007137,-0.001906,0.005600,SYSTEM_IDENTIFICATION
1.319872,0.009891,0.029508,-0.013492,-2.025642,-0.018620,0.029342,0.009375,0.000462,0.005719,-9.767975,-0.007157,-0.000811,0.006536,-0.007457,-0.002145,0.005389,0.006055,0.001117,1.542659,0.716982,0.001781,0.002511,0.697084,0.726691,0.726338,0.726674,0.726359,2.906062,-0.726514,-0.007441,-0.002113,0.005590,SYSTEM_IDENTIFICATION
1.330521,0.010649,0.028960,-0.013429,-2.025853,-0.019263,0.028594,0.009986,0.002560,0.000576,-9.763597,-0.007547,-0.002565,0.005882,-0.007586,-0.002854,0.005618,0.005948,0.001095,1.542753,0.716950,0.001750,0.002466,0.697118,0.726765,0.726259,0.726877,0.726154,2.906055,-0.726513,-0.007711,-0.002311,0.005577,SYSTEM_IDENTIFICATION
1.339947,0.009426,0.028674,-0.013409,-2.025959,-0.019508,0.028264,0.010273,0.003316,0.007981,-9.759284,-0.007907,-0.002821,0.006822,-0.007621,-0.002488,0.005450,0.005887,0.001078,1.542808,0.716931,0.001735,0.002438,0.697138,0.726577,0.726427,0.726666,0.726383,2.906053,-0.726521,-0.008172,-0.002563,0.005562,SYSTEM_IDENTIFICATION
1.349867,0.009920,0.028104,-0.013363,-2.026147,-0.020068,0.027591,0.010871,0.001636,-0.005967,-9.761393,-0.007658,-0.001391,0.006744,-0.007824,-0.001454,0.006827,0.005773,0.001058,1.542909,0.716896,0.001700,0.002392,0.697174,0.726326,0.726690,0.726171,0.726895,2.906083,-0.726522,-0.008407,-0.002713,0.005550,SYSTEM_IDENTIFICATION
1.359956,0.010089,0.027795,-0.013376,-2.026263,-0.020310,0.027227,0.011196,-0.001870,-0.007909,-9.755446,-0.007484,-0.001251,0.006226,-0.007783,-0.001452,0.006303,0.005716,0.001053,1.542958,0.716878,0.001682,0.002370,0.697192,0.726366,0.726628,0.726250,0.726844,2.906089,-0.726533,-0.008901,-0.003061,0.005529,SYSTEM_IDENTIFICATION
1.369865,0.009909,0.027488,-0.013386,-2.026371,-0.020530,0.026885,0.011522,0.001911,-0.002897,-9.765938,-0.007770,-0.001551,0.006628,-0.008121,-0.000816,0.005980,0.005658,0.001046,1.543015,0.716859,0.001663,0.002347,0.697213,0.726369,0.726632,0.726269,0.726860,2.906130,-0.726535,-0.009138,-0.003306,0.005520,SYSTEM_IDENTIFICATION
1.379942,0.010077,0.027181,-0.013395,-2.026443,-0.020777,0.026549,0.011774,0.003732,0.004673,-9.765987,-0.007957,-0.000725,0.006618,-0.007629,-0.002062,0.006430,0.005598,0.001046,1.543071,0.716839,0.001642,0.002326,0.697233,0.726335,0.726653,0.726172,0.726982,2.906142,-0.726540,-0.009351,-0.003525,0.005509,SYSTEM_IDENTIFICATION
1.389967,0.010025,0.026876,-0.013402,-2.026508,-0.021065,0.026229,0.012050,-0.004568,-0.004558,-9.764420,-0.007838,-0.002141,0.006426,-0.008218,-0.004340,0.005785,0.005539,0.001034,1.543125,0.716820,0.001625,0.002301,0.697252,0.726786,0.726214,0.726649,0.726535,2.906184,-0.726546,-0.009544,-0.003741,0.005499,SYSTEM_IDENTIFICATION
1.399862,0.009895,0.026200,-0.013511,-2.026690,-0.021544,0.025448,0.012637,0.006170,-0.003034,-9.760326,-0.008522,-0.004952,0.005690,-0.009093,-0.004375,0.005336,0.005413,0.000977,1.543221,0.716787,0.001599,0.002237,0.697287,0.726892,0.726127,0.726889,0.726275,2.906183,-0.726555,-0.009792,-0.003911,0.005489,SYSTEM_IDENTIFICATION
1.409877,0.010015,0.025864,-0.013562,-2.026769,-0.021767,0.025086,0.012915,0.000345,-0.005587,-9.767433,-0.009045,-0.004407,0.005660,-0.008798,-0.004672,0.004625,0.005345,0.000947,1.543268,0.716770,0.001585,0.002203,0.697304,0.726676,0.726382,0.726623,0.726540,2.906221,-0.726565,-0.010302,-0.004320,0.005469,SYSTEM_IDENTIFICATION
1.419882,0.010005,0.025530,-0.013612,-2.026840,-0.021984,0.024744,0.013189,-0.000123,-0.004324,-9.766096,-0.009324,-0.004504,0.005071,-0.009685,-0.003896,0.005878,0.005274,0.000917,1.543312,0.716755,0.001570,0.002168,0.697320,0.726417,0.726692,0.726536,0.726616,2.906261,-0.726572,-0.010469,-0.004442,0.005461,SYSTEM_IDENTIFICATION
1.429872,0.009990,0.025197,-0.013658,-2.026904,-0.022189,0.024377,0.013469,-0.002890,-0.009197,-9.761078,-0.010122,-0.004009,0.006088,-0.009583,-0.003303,0.006715,0.005197,0.000891,1.543363,0.716738,0.001552,0.002131,0.697338,0.726485,0.726610,0.726217,0.726976,2.906288,-0.726579,-0.010673,-0.004616,0.005452,SYSTEM_IDENTIFICATION
1.439838,0.009966,0.024450,-0.013830,-2.027067,-0.022668,0.023626,0.014039,-0.003964,-0.001486,-9.758976,-0.011447,-0.001940,0.006638,-0.011343,-0.002246,0.005454,0.005041,0.000859,1.543482,0.716696,0.001507,0.002066,0.697381,0.725846,0.727244,0.726256,0.727011,2.906357,-0.726589,-0.010777,-0.004753,0.005443,SYSTEM_IDENTIFICATION
1.449879,0.010041,0.024080,-0.013911,-2.027137,-0.022915,0.023233,0.014338,-0.000111,-0.003365,-9.762516,-0.011703,-0.002655,0.005632,-0.012022,-0.002947,0.005049,0.004953,0.000844,1.543534,0.716678,0.001480,0.002030,0.697400,0.726025,0.727070,0.726414,0.726849,2.906357,-0.726601,-0.011203,-0.005371,0.005419,SYSTEM_IDENTIFICATION
1.459879,0.010000,0.024080,-0.013911,-2.027137,-0.022915,0.023233,0.014338,-0.000111,-0.003365,-9.762516,-0.011703,-0.002655,0.005632,-0.012022,-0.002947,0.005049,0.004953,0.000844,1.543534,0.716678,0.001480,0.002030,0.697400,0.726025,0.727070,0.726414,0.726849,2.906357,-0.726612,-0.011311,-0.005632,0.005410,SYSTEM_IDENTIFICATION
1.469871,0.009992,0.023316,-0.014099,-2.027275,-0.023326,0.022501,0.014818,-0.001542,0.004438,-9.767040,-0.010824,-0.005082,0.005855,-0.012110,-0.006008,0.005676,0.004787,0.000776,1.543636,0.716643,0.001445,0.001948,0.697436,0.726764,0.726410,0.726942,0.726330,2.906447,-0.726611,-0.011343,-0.005669,0.005409,SYSTEM_IDENTIFICATION
1.479887,0.010016,0.022922,-0.014205,-2.027344,-0.023611,0.022087,0.015062,-0.001542,0.004438,-9.767040,-0.012029,-0.006261,0.005631,-0.012110,-0.006008,0.005676,0.004696,0.000733,1.543685,0.716625,0.001427,0.001900,0.697454,0.726764,0.726410,0.726942,0.726330,2.906447,-0.726622,-0.011662,-0.006053,0.005389,SYSTEM_IDENTIFICATION
1.489885,0.009998,0.022141,-0.014409,-2.027460,-0.024027,0.021402,0.015557,0.004370,-0.004496,-9.763273,-0.012836,-0.004666,0.005105,-0.011799,-0.005233,0.005478,0.004502,0.000664,1.543781,0.716592,0.001381,0.001808,0.697489,0.726341,0.726889,0.726381,0.726875,2.906486,-0.726627,-0.011845,-0.006237,0.005380,SYSTEM_IDENTIFICATION
1.499853,0.009968,0.021729,-0.014528,-2.027524,-0.024253,0.021059,0.015824,0.005267,0.004846,-9.760353,-0.011568,-0.005612,0.005452,-0.011943,-0.005766,0.005309,0.004415,0.000625,1.543829,0.716575,0.001364,0.001764,0.697506,0.726795,0.726461,0.726511,0.726742,2.906509,-0.726644,-0.011971,-0.006536,0.005363,SYSTEM_IDENTIFICATION
1.510061,0.010208,0.020913,-0.014758,-2.027629,-0.024719,0.020418,0.016321,0.007462,-0.004424,-9.776109,-0.012220,-0.006013,0.005051,-0.011755,-0.005723,0.004042,0.004229,0.000542,1.543929,0.716540,0.001326,0.001669,0.697542,0.726618,0.726672,0.726658,0.726628,2.906575,-0.726652,-0.012183,-0.006752,0.005353,SYSTEM_IDENTIFICATION
1.519937,0.009876,0.020508,-0.014869,-2.027670,-0.024873,0.020071,0.016605,0.007462,-0.004424,-9.776109,-0.011658,-0.006544,0.005574,-0.011755,-0.005723,0.004042,0.004141,0.000496,1.543980,0.716523,0.001311,0.001622,0.697561,0.726618,0.726672,0.726658,0.726628,2.906575,-0.726671,-0.012459,-0.007010,0.005334,SYSTEM_IDENTIFICATION
1.529857,0.009920,0.020090,-0.015002,-2.027730,-0.025036,0.019712,0.016873,0.003593,0.005337,-9.772648,-0.013153,-0.006870,0.004733,-0.013282,-0.006645,0.005254,0.004041,0.000446,1.544024,0.716508,0.001292,0.001569,0.697576,0.726623,0.726774,0.726775,0.726512,2.906683,-0.726685,-0.012621,-0.007173,0.005323,SYSTEM_IDENTIFICATION
1.540106,0.010249,0.020090,-0.015002,-2.027730,-0.025036,0.019712,0.016873,0.003593,0.005337,-9.772648,-0.013153,-0.006870,0.004733,-0.013282,-0.006645,0.005254,0.004041,0.000446,1.544024,0.716508,0.001292,0.001569,0.697576,0.726623,0.726774,0.726775,0.726512,2.906683,-0.726694,-0.012699,-0.007327,0.005315,SYSTEM_IDENTIFICATION
1.550140,0.010034,0.019674,-0.015132,-2.027781,-0.025261,0.019422,0.017082,0.004805,-0.007333,-9.774217,-0.013114,-0.006526,0.005698,-0.014026,-0.005744,0.005148,0.003941,0.000400,1.544072,0.716491,0.001272,0.001518,0.697594,0.726607,0.726819,0.726523,0.726791,2.906740,-0.726694,-0.012725,-0.007364,0.005314,SYSTEM_IDENTIFICATION
1.559884,0.009744,0.018420,-0.015538,-2.027913,-0.025714,0.018473,0.017782,0.004805,-0.007333,-9.774217,-0.014025,-0.006969,0.005484,-0.014026,-0.005744,0.005148,0.003631,0.000257,1.544209,0.716443,0.001211,0.001358,0.697643,0.726502,0.726959,0.726620,0.726696,2.906778,-0.726701,-0.012845,-0.007483,0.005305,SYSTEM_IDENTIFICATION
1.569863,0.009979,0.018420,-0.015538,-2.027913,-0.025714,0.018473,0.017782,0.004193,-0.008250,-9.766953,-0.014025,-0.006969,0.005484,-0.014095,-0.007341,0.004923,0.003631,0.000257,1.544209,0.716443,0.001211,0.001358,0.697643,0.726701,0.726778,0.726788,0.726536,2.906802,-0.726730,-0.012949,-0.007820,0.005280,SYSTEM_IDENTIFICATION
1.579886,0.010023,0.017993,-0.015691,-2.027959,-0.025815,0.018154,0.018057,-0.000531,-0.003595,-9.762484,-0.013853,-0.007312,0.005655,-0.012051,-0.006902,0.005876,0.003525,0.000204,1.544258,0.716426,0.001192,0.001303,0.697661,0.726817,0.726654,0.726591,0.726740,2.906802,-0.726743,-0.012995,-0.007987,0.005269,SYSTEM_IDENTIFICATION
1.590196,0.010310,0.017570,-0.015840,-2.027997,-0.025928,0.017837,0.018324,0.004322,-0.010262,-9.767761,-0.012092,-0.006946,0.006078,-0.013390,-0.006700,0.005485,0.003434,0.000155,1.544312,0.716407,0.001176,0.001253,0.697680,0.726758,0.726753,0.726373,0.727037,2.906920,-0.726743,-0.013016,-0.008021,0.005269,SYSTEM_IDENTIFICATION
1.599882,0.009686,0.016284,-0.016363,-2.028104,-0.026210,0.016804,0.019152,-0.008632,-0.002594,-9.759434,-0.014462,-0.007691,0.005498,-0.013818,-0.007796,0.005374,0.003111,-0.000006,1.544465,0.716354,0.001116,0.001083,0.697735,0.726667,0.726839,0.726895,0.726570,2.906971,-0.726771,-0.013082,-0.008262,0.005249,SYSTEM_IDENTIFICATION
1.609908,0.010026,0.016284,-0.016363,-2.028104,-0.026210,0.016804,0.019152,0.003305,-0.006022,-9.767004,-0.014462,-0.007691,0.005498,-0.014676,-0.007800,0.005362,0.003111,-0.000006,1.544465,0.716354,0.001116,0.001083,0.697735,0.726627,0.726936,0.726792,0.726731,2.907085,-0.726801,-0.013075,-0.008607,0.005230,SYSTEM_IDENTIFICATION
1.619952,0.010044,0.015857,-0.016546,-2.028130,-0.026282,0.016500,0.019400,-0.000741,-0.000496,-9.772047,-0.013841,-0.007687,0.005814,-0.014100,-0.009197,0.004360,0.003005,-0.000062,1.544514,0.716337,0.001098,0.001026,0.697753,0.726855,0.726706,0.726816,0.726708,2.907085,-0.726801,-0.013119,-0.008685,0.005229,SYSTEM_IDENTIFICATION
1.629867,0.009915,0.015000,-0.016948,-2.028170,-0.026413,0.015821,0.019949,0.005081,0.000302,-9.763388,-0.014521,-0.009287,0.005314,-0.014951,-0.009638,0.004492,0.002787,-0.000196,1.544603,0.716306,0.001067,0.000902,0.697785,0.726912,0.726725,0.727016,0.726552,2.907205,-0.726816,-0.013114,-0.008833,0.005220,SYSTEM_IDENTIFICATION
1.639897,0.010030,0.014570,-0.017166,-2.028184,-0.026475,0.015547,0.020217,0.006348,-0.004325,-9.766155,-0.015408,-0.008863,0.005701,-0.015393,-0.008400,0.005493,0.002669,-0.000260,1.544655,0.716288,0.001047,0.000838,0.697804,0.726647,0.726995,0.727061,0.726502,2.907205,-0.726852,-0.013029,-0.009013,0.005203,SYSTEM_IDENTIFICATION
1.649882,0.009985,0.014144,-0.017379,-2.028191,-0.026515,0.015270,0.020471,0.013728,-0.002721,-9.765842,-0.014422,-0.008667,0.005515,-0.015175,-0.008463,0.004932,0.002558,-0.000323,1.544704,0.716271,0.001029,0.000777,0.697821,0.726687,0.727053,0.726777,0.726891,2.907408,-0.726890,-0.012911,-0.009306,0.005183,SYSTEM_IDENTIFICATION
1.659876,0.009994,0.013722,-0.017587,-2.028191,-0.026543,0.015063,0.020739,0.009895,-0.003729,-9.771173,-0.014606,-0.008350,0.005273,-0.013980,-0.008789,0.006087,0.002445,-0.000383,1.544752,0.716254,0.001010,0.000716,0.697839,0.726748,0.726994,0.726707,0.726959,2.907408,-0.726890,-0.012928,-0.009337,0.005183,SYSTEM_IDENTIFICATION
1.669905,0.010029,0.013286,-0.017835,-2.028200,-0.026585,0.014791,0.020988,-0.000579,-0.008235,-9.759653,-0.014049,-0.009166,0.006587,-0.014954,-0.008411,0.005016,0.002337,-0.000450,1.544810,0.716234,0.000994,0.000654,0.697860,0.726853,0.726936,0.726933,0.726837,2.907559,-0.726912,-0.012847,-0.009423,0.005174,SYSTEM_IDENTIFICATION
1.679877,0.009972,0.012428,-0.018315,-2.028194,-0.026576,0.014226,0.021584,0.004341,-0.003188,-9.767675,-0.015839,-0.009419,0.005907,-0.015605,-0.009412,0.005733,0.002094,-0.000578,1.544912,0.716198,0.000952,0.000524,0.697896,0.726601,0.727185,0.727184,0.726589,2.907559,-0.726930,-0.012819,-0.009567,0.005163,SYSTEM_IDENTIFICATION
1.689898,0.010021,0.012007,-0.018547,-2.028180,-0.026573,0.014006,0.021801,-0.000245,-0.000955,-9.772032,-0.015726,-0.008891,0.004875,-0.015234,-0.008088,0.005114,0.001972,-0.000643,1.544954,0.716183,0.000930,0.000458,0.697911,0.726616,0.727262,0.726869,0.726973,2.907720,-0.727000,-0.012359,-0.009960,0.005135,SYSTEM_IDENTIFICATION
1.699862,0.009964,0.011589,-0.018773,-2.028158,-0.026561,0.013691,0.022039,-0.007891,-0.002848,-9.768909,-0.015206,-0.008554,0.005999,-0.015431,-0.009885,0.005799,0.001854,-0.000705,1.545006,0.716166,0.000910,0.000395,0.697930,0.726779,0.727188,0.727021,0.726930,2.907918,-0.727000,-0.012374,-0.009986,0.005135,SYSTEM_IDENTIFICATION
1.709866,0.010004,0.011153,-0.019049,-2.028148,-0.026553,0.013343,0.022274,0.002868,-0.007998,-9.763908,-0.015305,-0.009595,0.006548,-0.015265,-0.008997,0.005661,0.001736,-0.000775,1.545061,0.716146,0.000892,0.000328,0.697950,0.726798,0.727172,0.727135,0.726895,2.908000,-0.727024,-0.012233,-0.010159,0.005125,SYSTEM_IDENTIFICATION
1.719891,0.010025,0.010295,-0.019583,-2.028106,-0.026401,0.012808,0.022741,0.005232,-0.008660,-9.770218,-0.015761,-0.008835,0.004942,-0.015709,-0.008845,0.004465,0.001494,-0.000906,1.545161,0.716111,0.000851,0.000197,0.697985,0.726557,0.727413,0.727059,0.726971,2.908000,-0.727044,-0.012114,-0.010371,0.005114,SYSTEM_IDENTIFICATION
1.729905,0.010014,0.009873,-0.019842,-2.028075,-0.026394,0.012496,0.022986,-0.003993,-0.007092,-9.767738,-0.016082,-0.009058,0.006070,-0.016251,-0.010164,0.004520,0.001370,-0.000972,1.545216,0.716092,0.000829,0.000130,0.698005,0.726623,0.727436,0.727279,0.726839,2.908178,-0.727117,-0.011552,-0.010878,0.005084,SYSTEM_IDENTIFICATION
1.739856,0.009951,0.009440,-0.020145,-2.028064,-0.026309,0.012176,0.023255,0.002553,-0.007137,-9.764734,-0.016223,-0.010270,0.004986,-0.016801,-0.009152,0.004999,0.001243,-0.001047,1.545262,0.716076,0.000811,0.000059,0.698022,0.726737,0.727427,0.727433,0.726764,2.908360,-0.727117,-0.011568,-0.010912,0.005084,SYSTEM_IDENTIFICATION
1.749867,0.010011,0.009013,-0.020442,-2.028059,-0.026188,0.011898,0.023499,0.002116,-0.010263,-9.767672,-0.017109,-0.009220,0.005567,-0.016896,-0.009068,0.005439,0.001110,-0.001113,1.545316,0.716058,0.000786,-0.000011,0.698041,0.726385,0.727831,0.727277,0.726973,2.908466,-0.727141,-0.011348,-0.011113,0.005076,SYSTEM_IDENTIFICATION
1.759855,0.009988,0.008177,-0.021016,-2.028025,-0.025962,0.011367,0.023963,-0.000740,-0.007481,-9.770252,-0.016168,-0.010500,0.005641,-0.015737,-0.010640,0.005241,0.000852,-0.001258,1.545415,0.716023,0.000744,-0.000153,0.698076,0.726844,0.727413,0.727432,0.726873,2.908562,-0.727161,-0.011053,-0.011295,0.005065,SYSTEM_IDENTIFICATION
1.769880,0.010025,0.007757,-0.021337,-2.028025,-0.025856,0.011077,0.024144,0.010307,0.000619,-9.780025,-0.016413,-0.011546,0.005586,-0.015650,-0.010975,0.004438,0.000724,-0.001343,1.545465,0.716006,0.000728,-0.000228,0.698094,0.726971,0.727326,0.727599,0.726749,2.908645,-0.727206,-0.010513,-0.011652,0.005046,SYSTEM_IDENTIFICATION
1.779879,0.009999,0.007343,-0.021651,-2.028019,-0.025755,0.010888,0.024279,0.010021,0.000662,-9.771373,-0.015715,-0.011124,0.005007,-0.016019,-0.010938,0.004944,0.000602,-0.001424,1.545512,0.715989,0.000713,-0.000300,0.698111,0.726802,0.727595,0.727445,0.726980,2.908822,-0.727220,-0.010253,-0.011797,0.005037,SYSTEM_IDENTIFICATION
1.789899,0.010020,0.006935,-0.021958,-2.028005,-0.025629,0.010677,0.024489,-0.002714,-0.010284,-9.774318,-0.015849,-0.011155,0.004994,-0.015133,-0.011692,0.004792,0.000478,-0.001506,1.545559,0.715973,0.000697,-0.000372,0.698128,0.726880,0.727533,0.727475,0.726934,2.908822,-0.727232,-0.010017,-0.011886,0.005027,SYSTEM_IDENTIFICATION
1.799877,0.009978,0.006532,-0.022258,-2.027984,-0.025430,0.010413,0.024687,0.004160,-0.002750,-9.766596,-0.015211,-0.011824,0.005343,-0.015346,-0.012353,0.003908,0.000359,-0.001594,1.545608,0.715955,0.000685,-0.000445,0.698146,0.726871,0.727602,0.727572,0.726881,2.908927,-0.727252,-0.009751,-0.011981,0.005018,SYSTEM_IDENTIFICATION
1.809986,0.010109,0.005724,-0.022946,-2.027931,-0.025091,0.009912,0.025162,0.000974,0.000527,-9.771358,-0.015007,-0.012697,0.004235,-0.014625,-0.013374,0.004865,0.000120,-0.001774,1.545698,0.715924,0.000662,-0.000593,0.698177,0.727161,0.727404,0.727712,0.726731,2.909008,-0.727272,-0.009457,-0.012072,0.005009,SYSTEM_IDENTIFICATION
1.819860,0.009874,0.005330,-0.023279,-2.027894,-0.024912,0.009668,0.025355,0.002102,-0.006454,-9.780101,-0.014729,-0.013499,0.004938,-0.014605,-0.011802,0.004155,0.000004,-0.001874,1.545747,0.715907,0.000656,-0.000669,0.698195,0.727109,0.727509,0.727694,0.726776,2.909087,-0.727322,-0.008900,-0.012316,0.004992,SYSTEM_IDENTIFICATION
1.829832,0.009972,0.004551,-0.023968,-2.027815,-0.024453,0.009174,0.025776,0.001094,-0.010028,-9.763897,-0.013702,-0.011375,0.003985,-0.013582,-0.011247,0.002965,-0.000215,-0.002041,1.545830,0.715878,0.000635,-0.000806,0.698224,0.726764,0.727978,0.727189,0.727355,2.909286,-0.727345,-0.008631,-0.012330,0.004982,SYSTEM_IDENTIFICATION
1.839982,0.010150,0.004166,-0.024325,-2.027772,-0.024182,0.008897,0.025962,-0.005454,-0.004923,-9.775530,-0.012410,-0.011183,0.004336,-0.012056,-0.011484,0.004372,-0.000313,-0.002122,1.545873,0.715863,0.000629,-0.000869,0.698240,0.727000,0.727830,0.727190,0.727358,2.909379,-0.727395,-0.008080,-0.012621,0.004965,SYSTEM_IDENTIFICATION
1.849908,0.009926,0.003788,-0.024674,-2.027723,-0.023968,0.008649,0.026176,-0.001423,0.000122,-9.776016,-0.010790,-0.012685,0.004397,-0.010263,-0.012737,0.004419,-0.000397,-0.002215,1.545917,0.715848,0.000631,-0.000932,0.698255,0.727521,0.727431,0.727326,0.727300,2.909578,-0.727419,-0.007819,-0.012890,0.004958,SYSTEM_IDENTIFICATION
1.859770,0.009862,0.003415,-0.025015,-2.027666,-0.023765,0.008462,0.026359,0.006560,-0.000059,-9.774397,-0.010788,-0.011379,0.005800,-0.011125,-0.011415,0.005337,-0.000482,-0.002299,1.545971,0.715829,0.000630,-0.000991,0.698275,0.727110,0.727860,0.727303,0.727403,2.909675,-0.727446,-0.007675,-0.012998,0.004949,SYSTEM_IDENTIFICATION
1.870351,0.010581,0.003031,-0.025371,-2.027634,-0.023497,0.008279,0.026559,0.007580,-0.002794,-9.773110,-0.010578,-0.012348,0.005777,-0.011306,-0.013105,0.004582,-0.000565,-0.002390,1.546026,0.715810,0.000632,-0.001053,0.698294,0.727279,0.727718,0.727646,0.727141,2.909784,-0.727473,-0.007529,-0.013112,0.004939,SYSTEM_IDENTIFICATION
1.879904,0.009553,0.002653,-0.025719,-2.027594,-0.023248,0.008117,0.026726,-0.001473,0.007347,-9.779093,-0.010747,-0.013279,0.005403,-0.010364,-0.013106,0.004136,-0.000649,-0.002488,1.546078,0.715792,0.000636,-0.001117,0.698313,0.727477,0.727554,0.727691,0.727168,2.909890,-0.727496,-0.007377,-0.013173,0.004928,SYSTEM_IDENTIFICATION
1.889847,0.009943,0.002283,-0.026060,-2.027547,-0.023052,0.007913,0.026859,-0.002483,-0.004918,-9.774145,-0.010155,-0.013328,0.005027,-0.008065,-0.013711,0.004807,-0.000729,-0.002587,1.546127,0.715774,0.000642,-0.001180,0.698330,0.727591,0.727450,0.727600,0.727342,2.909982,-0.727518,-0.007195,-0.013221,0.004918,SYSTEM_IDENTIFICATION
1.899902,0.010055,0.001546,-0.026734,-2.027455,-0.022546,0.007557,0.027242,0.002719,-0.004925,-9.774427,-0.008569,-0.013569,0.005309,-0.008304,-0.014131,0.005388,-0.000873,-0.002788,1.546232,0.715738,0.000661,-0.001303,0.698368,0.727568,0.727500,0.727592,0.727410,2.910069,-0.727538,-0.007081,-0.013256,0.004909,SYSTEM_IDENTIFICATION
1.909892,0.009990,0.001180,-0.027067,-2.027410,-0.022251,0.007410,0.027422,0.002803,-0.007498,-9.774240,-0.008099,-0.014302,0.005354,-0.007358,-0.015028,0.005121,-0.000937,-0.002895,1.546281,0.715721,0.000676,-0.001363,0.698385,0.727801,0.727303,0.727744,0.727305,2.910153,-0.727588,-0.006879,-0.013212,0.004888,SYSTEM_IDENTIFICATION
1.919915,0.010023,0.000821,-0.027392,-2.027357,-0.021934,0.007273,0.027618,0.004580,-0.008852,-9.776941,-0.006752,-0.015218,0.005489,-0.005686,-0.014244,0.004067,-0.000990,-0.003010,1.546330,0.715703,0.000697,-0.001423,0.698403,0.727862,0.727249,0.727412,0.727630,2.910153,-0.727612,-0.006773,-0.013184,0.004879,SYSTEM_IDENTIFICATION
1.929865,0.009950,0.000102,-0.028034,-2.027262,-0.021334,0.007056,0.027894,-0.005297,0.004386,-9.783464,-0.006398,-0.013907,0.005439,-0.006701,-0.012774,0.005405,-0.001086,-0.003222,1.546420,0.715672,0.000736,-0.001532,0.698435,0.727383,0.727877,0.727449,0.727740,2.910449,-0.727639,-0.006713,-0.013070,0.004869,SYSTEM_IDENTIFICATION
1.939876,0.010011,-0.000258,-0.028350,-2.027215,-0.021092,0.006961,0.028020,0.003200,-0.004907,-9.779747,-0.006850,-0.012714,0.005634,-0.007370,-0.012209,0.005097,-0.001140,-0.003317,1.546471,0.715654,0.000750,-0.001585,0.698453,0.727199,0.728094,0.727447,0.727818,2.910558,-0.727682,-0.006644,-0.012910,0.004852,SYSTEM_IDENTIFICATION
1.949892,0.010016,-0.000611,-0.028659,-2.027161,-0.020762,0.006885,0.028161,0.001631,-0.001551,-9.787399,-0.007418,-0.012471,0.005115,-0.006587,-0.013192,0.003974,-0.001199,-0.003410,1.546517,0.715638,0.000762,-0.001639,0.698469,0.727471,0.727910,0.727676,0.727668,2.910724,-0.727703,-0.006631,-0.012862,0.004843,SYSTEM_IDENTIFICATION
1.959943,0.010051,-0.000956,-0.028960,-2.027101,-0.020474,0.006830,0.028235,0.007805,-0.004838,-9.786539,-0.006638,-0.012977,0.004513,-0.007902,-0.015747,0.006176,-0.001251,-0.003508,1.546558,0.715624,0.000777,-0.001692,0.698484,0.727857,0.727574,0.728166,0.727213,2.910810,-0.727725,-0.006545,-0.012786,0.004833,SYSTEM_IDENTIFICATION
1.969887,0.009944,-0.001643,-0.029564,-2.026978,-0.019833,0.006753,0.028359,-0.004527,-0.001394,-9.792929,-0.007517,-0.015539,0.005543,-0.008167,-0.015279,0.004777,-0.001373,-0.003738,1.546656,0.715590,0.000814,-0.001817,0.698518,0.727840,0.727594,0.728381,0.727084,2.910899,-0.727743,-0.006488,-0.012679,0.004825,SYSTEM_IDENTIFICATION
1.979889,0.010002,-0.001986,-0.029867,-2.026917,-0.019538,0.006673,0.028415,0.000547,-0.003648,-9.800243,-0.008760,-0.014220,0.005401,-0.007973,-0.014004,0.004531,-0.001442,-0.003846,1.546702,0.715574,0.000827,-0.001880,0.698534,0.727476,0.727994,0.727926,0.727577,2.910973,-0.727779,-0.006213,-0.012259,0.004807,SYSTEM_IDENTIFICATION
1.989890,0.010001,-0.002321,-0.030162,-2.026835,-0.019200,0.006651,0.028422,-0.002049,-0.009046,-9.784616,-0.007721,-0.014848,0.005047,-0.006733,-0.014406,0.004243,-0.001503,-0.003959,1.546744,0.715559,0.000845,-0.001941,0.698550,0.728043,0.727504,0.728123,0.727443,2.911112,-0.727797,-0.006057,-0.012114,0.004798,SYSTEM_IDENTIFICATION
1.999929,0.010039,-0.002973,-0.030772,-2.026658,-0.018438,0.006495,0.028663,-0.004922,-0.004381,-9.785129,-0.007599,-0.013221,0.005272,-0.006779,-0.012885,0.004340,-0.001621,-0.004164,1.546833,0.715528,0.000875,-0.002056,0.698581,0.727520,0.728052,0.727896,0.727719,2.911187,-0.727814,-0.005907,-0.011889,0.004790,SYSTEM_IDENTIFICATION
2.009934,0.010005,-0.003291,-0.031086,-2.026562,-0.018072,0.006484,0.028823,-0.004922,-0.004381,-9.785129,-0.006067,-0.013210,0.005291,-0.006779,-0.012885,0.004340,-0.001669,-0.004263,1.546879,0.715511,0.000892,-0.002108,0.698597,0.727520,0.728052,0.727896,0.727719,2.911187,-0.727869,-0.005600,-0.011622,0.004771,SYSTEM_IDENTIFICATION
2.019899,0.009965,-0.003601,-0.031392,-2.026461,-0.017757,0.006484,0.028886,0.000742,0.001792,-9.796026,-0.006153,-0.012794,0.003765,-0.006250,-0.013279,0.003249,-0.001718,-0.004360,1.546913,0.715499,0.000909,-0.002160,0.698609,0.727868,0.727873,0.727885,0.727850,2.911476,-0.727904,-0.005427,-0.011528,0.004764,SYSTEM_IDENTIFICATION
2.029850,0.009951,-0.003904,-0.031690,-2.026355,-0.017403,0.006511,0.028930,0.000742,0.001792,-9.796026,-0.005701,-0.012781,0.004642,-0.006250,-0.013279,0.003249,-0.001763,-0.004456,1.546954,0.715485,0.000926,-0.002210,0.698624,0.727868,0.727873,0.727885,0.727850,2.911476,-0.727930,-0.005329,-0.011393,0.004757,SYSTEM_IDENTIFICATION
2.039861,0.010011,-0.004208,-0.032031,-2.026237,-0.017005,0.006539,0.028978,0.004062,-0.002586,-9.791914,-0.005741,-0.012789,0.004963,-0.006541,-0.012199,0.004131,-0.001808,-0.004553,1.546995,0.715471,0.000944,-0.002261,0.698638,0.727778,0.728133,0.728071,0.727737,2.911719,-0.727955,-0.005214,-0.011230,0.004750,SYSTEM_IDENTIFICATION
2.049902,0.010041,-0.004794,-0.032685,-2.026033,-0.016276,0.006592,0.029154,0.004062,-0.002586,-9.791914,-0.006744,-0.013006,0.005216,-0.006541,-0.012199,0.004131,-0.001914,-0.004743,1.547079,0.715441,0.000972,-0.002365,0.698668,0.727778,0.728133,0.728071,0.727737,2.911719,-0.727983,-0.005096,-0.011111,0.004741,SYSTEM_IDENTIFICATION
2.059861,0.009959,-0.005077,-0.032999,-2.025924,-0.015810,0.006667,0.029188,0.004755,-0.001357,-9.791527,-0.006466,-0.013868,0.005278,-0.007497,-0.012508,0.003320,-0.001966,-0.004848,1.547124,0.715426,0.000990,-0.002421,0.698684,0.728103,0.727906,0.728488,0.727434,2.911931,-0.728040,-0.004709,-0.010888,0.004726,SYSTEM_IDENTIFICATION
2.069931,0.010070,-0.005077,-0.032999,-2.025924,-0.015810,0.006667,0.029188,0.004755,-0.001357,-9.791527,-0.006466,-0.013868,0.005278,-0.007497,-0.012508,0.003320,-0.001966,-0.004848,1.547124,0.715426,0.000990,-0.002421,0.698684,0.728103,0.727906,0.728488,0.727434,2.911931,-0.728065,-0.004492,-0.010662,0.004716,SYSTEM_IDENTIFICATION
2.079877,0.009946,-0.005862,-0.034047,-2.025586,-0.014668,0.006656,0.029296,0.001479,-0.003218,-9.792894,-0.005122,-0.012442,0.005642,-0.005407,-0.012048,0.005370,-0.002105,-0.005137,1.547256,0.715380,0.001042,-0.002573,0.698731,0.728214,0.727967,0.728115,0.727963,2.912259,-0.728066,-0.004459,-0.010668,0.004717,SYSTEM_IDENTIFICATION
2.089942,0.010065,-0.006110,-0.034377,-2.025465,-0.014201,0.006720,0.029316,0.001479,-0.003218,-9.792894,-0.004326,-0.011747,0.005640,-0.005407,-0.012048,0.005370,-0.002140,-0.005225,1.547306,0.715362,0.001060,-0.002616,0.698748,0.728214,0.727967,0.728115,0.727963,2.912259,-0.728143,-0.003938,-0.010405,0.004690,SYSTEM_IDENTIFICATION
2.099857,0.009915,-0.006339,-0.034729,-2.025353,-0.013787,0.006765,0.029371,-0.000394,-0.000282,-9.794958,-0.004594,-0.011206,0.005194,-0.005244,-0.011668,0.004620,-0.002177,-0.005308,1.547353,0.715346,0.001076,-0.002659,0.698765,0.728069,0.728218,0.728310,0.727973,2.912570,-0.728170,-0.003717,-0.010327,0.004681,SYSTEM_IDENTIFICATION
2.109891,0.010034,-0.006339,-0.034729,-2.025353,-0.013787,0.006765,0.029371,-0.000394,-0.000282,-9.794958,-0.004594,-0.011206,0.005194,-0.005244,-0.011668,0.004620,-0.002177,-0.005308,1.547353,0.715346,0.001076,-0.002659,0.698765,0.728069,0.728218,0.728310,0.727973,2.912570,-0.728170,-0.003683,-0.010331,0.004682,SYSTEM_IDENTIFICATION
2.119926,0.010035,-0.006562,-0.035072,-2.025250,-0.013362,0.006802,0.029376,0.003794,0.004891,-9.801922,-0.005274,-0.011932,0.005293,-0.005462,-0.012653,0.004476,-0.002220,-0.005397,1.547399,0.715329,0.001092,-0.002706,0.698781,0.728245,0.728092,0.728699,0.727643,2.912679,-0.728219,-0.003255,-0.010215,0.004663,SYSTEM_IDENTIFICATION
2.129848,0.009922,-0.007181,-0.036068,-2.024927,-0.011971,0.007067,0.029452,0.001113,-0.005265,-9.801924,-0.003981,-0.012538,0.005143,-0.003822,-0.011280,0.005625,-0.002329,-0.005669,1.547541,0.715280,0.001148,-0.002841,0.698831,0.728236,0.728085,0.728236,0.728124,2.912681,-0.728243,-0.002997,-0.010093,0.004655,SYSTEM_IDENTIFICATION
2.140033,0.010185,-0.007181,-0.036068,-2.024927,-0.011971,0.007067,0.029452,-0.004191,0.001018,-9.790998,-0.003981,-0.012538,0.005143,-0.004907,-0.011720,0.003519,-0.002329,-0.005669,1.547541,0.715280,0.001148,-0.002841,0.698831,0.728340,0.728054,0.728636,0.727848,2.912878,-0.728291,-0.002516,-0.009826,0.004635,SYSTEM_IDENTIFICATION
2.149908,0.009875,-0.007368,-0.036400,-2.024818,-0.011523,0.007103,0.029493,-0.002596,0.000608,-9.801004,-0.004711,-0.012319,0.003683,-0.003913,-0.012361,0.003934,-0.002368,-0.005761,1.547575,0.715268,0.001166,-0.002888,0.698844,0.728380,0.728108,0.728724,0.727759,2.912970,-0.728292,-0.002440,-0.009829,0.004637,SYSTEM_IDENTIFICATION
2.159916,0.010008,-0.007548,-0.036722,-2.024704,-0.011071,0.007158,0.029493,-0.007198,-0.003313,-9.798730,-0.004178,-0.011933,0.004766,-0.004524,-0.011774,0.003891,-0.002403,-0.005850,1.547618,0.715253,0.001185,-0.002932,0.698859,0.728252,0.728349,0.728598,0.727965,2.913164,-0.728318,-0.002148,-0.009725,0.004630,SYSTEM_IDENTIFICATION
2.170330,0.010414,-0.008045,-0.037673,-2.024336,-0.009732,0.007499,0.029613,0.001308,0.002629,-9.795883,-0.005758,-0.011562,0.004935,-0.004568,-0.011939,0.004329,-0.002530,-0.006120,1.547744,0.715209,0.001234,-0.003073,0.698903,0.728390,0.728224,0.728880,0.727676,2.913169,-0.728342,-0.001869,-0.009610,0.004622,SYSTEM_IDENTIFICATION
2.179870,0.009540,-0.008045,-0.037673,-2.024336,-0.009732,0.007499,0.029613,-0.002799,-0.001414,-9.793953,-0.005758,-0.011562,0.004935,-0.005242,-0.011198,0.003864,-0.002530,-0.006120,1.547744,0.715209,0.001234,-0.003073,0.698903,0.728062,0.728653,0.728829,0.727824,2.913367,-0.728427,-0.000922,-0.009122,0.004596,SYSTEM_IDENTIFICATION
2.189883,0.010013,-0.008344,-0.038273,-2.024071,-0.008685,0.007784,0.029646,-0.003121,-0.006731,-9.795732,-0.005503,-0.011937,0.004940,-0.004689,-0.011151,0.004316,-0.002618,-0.006293,1.547826,0.715180,0.001263,-0.003165,0.698932,0.728278,0.728447,0.728762,0.727880,2.913367,-0.728428,-0.000858,-0.009118,0.004598,SYSTEM_IDENTIFICATION
2.199926,0.010043,-0.008344,-0.038273,-2.024071,-0.008685,0.007784,0.029646,-0.000569,0.001895,-9.795479,-0.005503,-0.011937,0.004940,-0.004679,-0.010741,0.004510,-0.002618,-0.006293,1.547826,0.715180,0.001263,-0.003165,0.698932,0.728239,0.728644,0.728917,0.727911,2.913712,-0.728459,-0.000463,-0.008986,0.004590,SYSTEM_IDENTIFICATION
2.209898,0.009972,-0.008759,-0.039136,-2.023667,-0.007161,0.008265,0.029751,0.005528,-0.006438,-9.793339,-0.002972,-0.009932,0.004493,-0.002862,-0.010400,0.004598,-0.002714,-0.006528,1.547952,0.715136,0.001311,-0.003283,0.698977,0.728430,0.728448,0.728594,0.728240,2.913712,-0.728485,-0.000025,-0.008746,0.004582,SYSTEM_IDENTIFICATION
2.219955,0.010057,-0.008759,-0.039136,-2.023667,-0.007161,0.008265,0.029751,-0.005443,0.002305,-9.791153,-0.002972,-0.009932,0.004493,-0.002821,-0.008805,0.004227,-0.002714,-0.006528,1.547952,0.715136,0.001311,-0.003283,0.698977,0.728266,0.728739,0.728596,0.728341,2.913941,-0.728577,0.000998,-0.008245,0.004557,SYSTEM_IDENTIFICATION
2.229870,0.009915,-0.008885,-0.039406,-2.023525,-0.006679,0.008419,0.029807,-0.000142,0.003170,-9.796412,-0.002891,-0.008868,0.004807,-0.002919,-0.008878,0.004556,-0.002739,-0.006593,1.547994,0.715121,0.001325,-0.003315,0.698991,0.728139,0.728868,0.728539,0.728396,2.913941,-0.728577,0.001032,-0.008243,0.004558,SYSTEM_IDENTIFICATION
2.239858,0.009988,-0.009004,-0.039666,-2.023376,-0.006205,0.008625,0.029780,-0.000915,-0.002919,-9.803786,-0.002350,-0.009262,0.004572,-0.002113,-0.010382,0.004238,-0.002760,-0.006662,1.548034,0.715107,0.001341,-0.003347,0.699005,0.728587,0.728607,0.728996,0.728116,2.914306,-0.728611,0.001348,-0.008126,0.004550,SYSTEM_IDENTIFICATION
2.249845,0.009987,-0.009338,-0.040450,-2.022960,-0.004730,0.009224,0.029755,-0.000421,0.004717,-9.800359,-0.000404,-0.010472,0.003610,-0.002336,-0.009438,0.003748,-0.002802,-0.006887,1.548138,0.715071,0.001405,-0.003442,0.699042,0.728533,0.728686,0.728956,0.728133,2.914308,-0.728665,0.001914,-0.007778,0.004534,SYSTEM_IDENTIFICATION
2.259932,0.010087,-0.009338,-0.040450,-2.022960,-0.004730,0.009224,0.029755,0.002475,-0.001557,-9.792847,-0.000404,-0.010472,0.003610,0.000686,-0.010197,0.003172,-0.002802,-0.006887,1.548138,0.715071,0.001405,-0.003442,0.699042,0.729093,0.728352,0.729090,0.728126,2.914660,-0.728722,0.002390,-0.007329,0.004521,SYSTEM_IDENTIFICATION
2.269938,0.010006,-0.009436,-0.040693,-2.022815,-0.004177,0.009468,0.029771,0.004181,-0.002116,-9.807524,0.000799,-0.009638,0.004305,0.000666,-0.008421,0.005074,-0.002798,-0.006959,1.548174,0.715058,0.001432,-0.003466,0.699055,0.728733,0.728719,0.728648,0.728561,2.914660,-0.728723,0.002466,-0.007309,0.004522,SYSTEM_IDENTIFICATION
2.279897,0.009959,-0.009537,-0.040942,-2.022690,-0.003644,0.009697,0.029721,0.001186,-0.004413,-9.804575,0.000666,-0.008211,0.005238,0.000650,-0.007634,0.004678,-0.002795,-0.007019,1.548217,0.715043,0.001454,-0.003487,0.699070,0.728442,0.729096,0.728664,0.728684,2.914887,-0.728754,0.002702,-0.007060,0.004515,SYSTEM_IDENTIFICATION
2.289774,0.009877,-0.009801,-0.041631,-2.022332,-0.002096,0.010372,0.029611,0.001595,0.006456,-9.800541,0.002974,-0.006504,0.003957,0.002299,-0.007272,0.003732,-0.002761,-0.007179,1.548326,0.715005,0.001522,-0.003532,0.699109,0.728652,0.728885,0.728717,0.728637,2.914891,-0.728775,0.002924,-0.006892,0.004507,SYSTEM_IDENTIFICATION
2.299879,0.010105,-0.009801,-0.041631,-2.022332,-0.002096,0.010372,0.029611,-0.006363,0.000526,-9.815636,0.002974,-0.006504,0.003957,0.002637,-0.007047,0.003981,-0.002761,-0.007179,1.548326,0.715005,0.001522,-0.003532,0.699109,0.728741,0.728932,0.728536,0.728893,2.915101,-0.728819,0.003354,-0.006550,0.004492,SYSTEM_IDENTIFICATION
2.309916,0.010037,-0.009879,-0.041850,-2.022250,-0.001581,0.010605,0.029494,0.001191,-0.006041,-9.805747,0.002923,-0.007751,0.004899,0.003721,-0.006953,0.005137,-0.002740,-0.007236,1.548366,0.714991,0.001550,-0.003545,0.699123,0.729049,0.728612,0.728919,0.728521,2.915101,-0.728839,0.003461,-0.006448,0.004486,SYSTEM_IDENTIFICATION
2.319959,0.010043,-0.009950,-0.042060,-2.022164,-0.001006,0.010844,0.029434,-0.002835,-0.001629,-9.800146,0.003925,-0.006981,0.005438,0.003869,-0.008970,0.005126,-0.002712,-0.007288,1.548411,0.714975,0.001578,-0.003553,0.699139,0.729111,0.728601,0.728944,0.728618,2.915275,-0.728846,0.003598,-0.006254,0.004478,SYSTEM_IDENTIFICATION
2.329914,0.009955,-0.010072,-0.042453,-2.021979,0.000030,0.011367,0.029298,0.005423,0.005134,-9.807516,0.003908,-0.008083,0.004852,0.003954,-0.007771,0.003946,-0.002658,-0.007413,1.548495,0.714945,0.001642,-0.003579,0.699169,0.729089,0.728618,0.729171,0.728478,2.915357,-0.728859,0.003740,-0.006080,0.004469,SYSTEM_IDENTIFICATION
2.339883,0.009969,-0.010126,-0.042647,-2.021900,0.000559,0.011649,0.029195,0.007113,-0.003362,-9.818679,0.004406,-0.007555,0.004282,0.004579,-0.006710,0.003810,-0.002625,-0.007470,1.548528,0.714934,0.001673,-0.003588,0.699181,0.728996,0.728771,0.728869,0.728797,2.915434,-0.728885,0.003992,-0.005538,0.004453,SYSTEM_IDENTIFICATION
2.349864,0.009981,-0.010174,-0.042832,-2.021818,0.001078,0.012003,0.029035,0.002420,0.009931,-9.814390,0.003940,-0.006364,0.004440,0.003535,-0.004463,0.004879,-0.002596,-0.007517,1.548564,0.714921,0.001700,-0.003595,0.699194,0.728447,0.729325,0.728688,0.728974,2.915434,-0.728893,0.004100,-0.005287,0.004447,SYSTEM_IDENTIFICATION
2.360126,0.010262,-0.010216,-0.043007,-2.021735,0.001539,0.012304,0.028924,0.001549,-0.004368,-9.812889,0.003652,-0.004272,0.005069,0.004173,-0.004916,0.003835,-0.002570,-0.007547,1.548604,0.714907,0.001720,-0.003596,0.699208,0.728372,0.729443,0.728578,0.729148,2.915540,-0.728896,0.004235,-0.005025,0.004440,SYSTEM_IDENTIFICATION
2.369909,0.009783,-0.010252,-0.043173,-2.021649,0.002054,0.012626,0.028779,-0.004865,0.003479,-9.812059,0.004580,-0.004778,0.004215,0.004425,-0.004630,0.004674,-0.002536,-0.007581,1.548637,0.714896,0.001744,-0.003597,0.699220,0.728971,0.728875,0.728741,0.728996,2.915582,-0.728903,0.004307,-0.004903,0.004432,SYSTEM_IDENTIFICATION
2.379895,0.009986,-0.010318,-0.043502,-2.021527,0.003001,0.013187,0.028513,-0.004517,0.000362,-9.811957,0.003957,-0.005216,0.005260,0.004271,-0.005714,0.005064,-0.002469,-0.007654,1.548717,0.714867,0.001794,-0.003599,0.699249,0.728953,0.728877,0.729289,0.728494,2.915613,-0.728909,0.004465,-0.004686,0.004426,SYSTEM_IDENTIFICATION
2.389865,0.009970,-0.010341,-0.043653,-2.021460,0.003517,0.013462,0.028371,-0.007051,0.005566,-9.811272,0.003918,-0.005709,0.005279,0.004122,-0.006213,0.003390,-0.002440,-0.007696,1.548759,0.714853,0.001819,-0.003604,0.699263,0.729044,0.728782,0.729325,0.728485,2.915635,-0.728911,0.004652,-0.004329,0.004410,SYSTEM_IDENTIFICATION
2.399881,0.010016,-0.010358,-0.043797,-2.021389,0.003961,0.013741,0.028260,0.008232,-0.000064,-9.813099,0.004095,-0.006480,0.003225,0.005382,-0.006038,0.003402,-0.002410,-0.007745,1.548783,0.714844,0.001846,-0.003611,0.699272,0.729265,0.728632,0.729272,0.728476,2.915645,-0.728913,0.004812,-0.004105,0.004402,SYSTEM_IDENTIFICATION
2.409920,0.010039,-0.010401,-0.044092,-2.021319,0.004980,0.014409,0.028011,-0.008255,-0.007095,-9.810947,0.005203,-0.004360,0.003450,0.004875,-0.003748,0.003452,-0.002334,-0.007824,1.548838,0.714825,0.001901,-0.003612,0.699292,0.728896,0.729041,0.728733,0.728980,2.915650,-0.728918,0.004925,-0.003832,0.004398,SYSTEM_IDENTIFICATION
2.419889,0.009969,-0.010413,-0.044227,-2.021278,0.005475,0.014741,0.027870,-0.002489,0.000483,-9.818110,0.005688,-0.003391,0.004828,0.004785,-0.004259,0.004075,-0.002291,-0.007848,1.548875,0.714812,0.001925,-0.003606,0.699305,0.728797,0.729149,0.728749,0.728978,2.915673,-0.728911,0.005051,-0.003376,0.004387,SYSTEM_IDENTIFICATION
2.429879,0.009990,-0.010419,-0.044353,-2.021233,0.005948,0.015058,0.027689,-0.011061,0.000934,-9.815403,0.004473,-0.004354,0.004630,0.004863,-0.004057,0.004550,-0.002258,-0.007879,1.548910,0.714799,0.001948,-0.003606,0.699318,0.728941,0.728979,0.729240,0.728484,2.915644,-0.728908,0.005225,-0.003143,0.004380,SYSTEM_IDENTIFICATION
2.439935,0.010056,-0.010434,-0.044476,-2.021216,0.006412,0.015337,0.027546,-0.000394,0.002713,-9.816190,0.005388,-0.003991,0.004637,0.005793,-0.003976,0.003795,-0.002217,-0.007908,1.548946,0.714787,0.001973,-0.003602,0.699330,0.729052,0.728864,0.728939,0.728789,2.915644,-0.728902,0.005353,-0.002914,0.004373,SYSTEM_IDENTIFICATION
2.449868,0.009933,-0.010443,-0.044590,-2.021195,0.006861,0.015677,0.027405,0.005166,0.000724,-9.818166,0.005597,-0.003919,0.004675,0.005717,-0.002969,0.003759,-0.002175,-0.007937,1.548982,0.714774,0.001998,-0.003597,0.699343,0.728943,0.728943,0.728946,0.728774,2.915606,-0.728893,0.005379,-0.002745,0.004366,SYSTEM_IDENTIFICATION
2.459953,0.010085,-0.010442,-0.044793,-2.021138,0.007811,0.016416,0.027106,-0.004104,0.002138,-9.811653,0.005514,-0.002931,0.005271,0.006387,-0.004208,0.004692,-0.002089,-0.007983,1.549055,0.714749,0.002045,-0.003583,0.699369,0.728998,0.728845,0.729032,0.728696,2.915571,-0.728886,0.005478,-0.002482,0.004359,SYSTEM_IDENTIFICATION
2.469849,0.009896,-0.010443,-0.044893,-2.021143,0.008262,0.016756,0.026935,-0.003369,0.001214,-9.811665,0.006177,-0.004149,0.004931,0.006303,-0.003713,0.003235,-0.002042,-0.008014,1.549091,0.714736,0.002073,-0.003578,0.699383,0.729220,0.728598,0.729173,0.728550,2.915541,-0.728872,0.005646,-0.001993,0.004345,SYSTEM_IDENTIFICATION
2.479983,0.010134,-0.010439,-0.044984,-2.021125,0.008697,0.017139,0.026778,-0.000428,-0.003327,-9.819090,0.007029,-0.003377,0.004155,0.007730,-0.002168,0.004117,-0.001988,-0.008038,1.549122,0.714725,0.002101,-0.003568,0.699394,0.729060,0.728769,0.728654,0.729059,2.915542,-0.728856,0.005686,-0.001720,0.004338,SYSTEM_IDENTIFICATION
2.490183,0.010200,-0.010413,-0.045141,-2.021077,0.009621,0.017807,0.026441,-0.006835,-0.005489,-9.811224,0.007669,-0.000894,0.005027,0.007375,-0.000166,0.004669,-0.001869,-0.008058,1.549189,0.714701,0.002150,-0.003533,0.699418,0.728722,0.729057,0.728455,0.729192,2.915426,-0.728847,0.005685,-0.001442,0.004332,SYSTEM_IDENTIFICATION
2.499875,0.009692,-0.010391,-0.045207,-2.021047,0.009996,0.018189,0.026312,-0.002127,0.003178,-9.812626,0.007076,-0.000404,0.004108,0.007613,-0.001134,0.004150,-0.001814,-0.008059,1.549220,0.714691,0.002170,-0.003514,0.699429,0.728753,0.729007,0.728671,0.728956,2.915387,-0.728828,0.005680,-0.001085,0.004319,SYSTEM_IDENTIFICATION
2.509880,0.010005,-0.010378,-0.045288,-2.021055,0.010413,0.018568,0.026158,-0.003115,0.001400,-9.816205,0.007419,-0.001585,0.004442,0.007149,-0.002643,0.003679,-0.001756,-0.008070,1.549253,0.714679,0.002195,-0.003498,0.699441,0.729215,0.728513,0.729107,0.728476,2.915310,-0.728823,0.005655,-0.000907,0.004313,SYSTEM_IDENTIFICATION
2.519916,0.010036,-0.010358,-0.045360,-2.021057,0.010871,0.018933,0.025999,0.001013,-0.011150,-9.800085,0.007205,-0.002674,0.004538,0.008148,-0.003797,0.004000,-0.001700,-0.008089,1.549287,0.714667,0.002222,-0.003485,0.699453,0.729436,0.728280,0.729251,0.728325,2.915292,-0.728808,0.005632,-0.000696,0.004307,SYSTEM_IDENTIFICATION
2.529918,0.010002,-0.010333,-0.045423,-2.021055,0.011328,0.019320,0.025926,-0.005228,0.003043,-9.803947,0.007962,-0.003719,0.004599,0.007085,-0.002035,0.005275,-0.001638,-0.008117,1.549322,0.714654,0.002254,-0.003473,0.699466,0.728960,0.728696,0.728958,0.728619,2.915233,-0.728794,0.005609,-0.000466,0.004301,SYSTEM_IDENTIFICATION
2.539917,0.009999,-0.010280,-0.045553,-2.021106,0.012098,0.019998,0.025706,0.004087,-0.000728,-9.813861,0.007387,-0.000109,0.004482,0.006837,0.001045,0.003627,-0.001526,-0.008129,1.549398,0.714628,0.002298,-0.003438,0.699493,0.728328,0.729282,0.728300,0.729267,2.915176,-0.728789,0.005649,-0.000104,0.004293,SYSTEM_IDENTIFICATION
2.549884,0.009967,-0.010252,-0.045619,-2.021143,0.012478,0.020382,0.025534,-0.008215,-0.002521,-9.812043,0.006725,0.000748,0.004177,0.007049,0.001178,0.004273,-0.001473,-0.008121,1.549430,0.714616,0.002314,-0.003417,0.699504,0.728467,0.729145,0.728525,0.729017,2.915154,-0.728759,0.005613,0.000254,0.004279,SYSTEM_IDENTIFICATION
2.559857,0.009973,-0.010220,-0.045677,-2.021175,0.012908,0.020681,0.025402,-0.003314,0.003106,-9.816917,0.007089,0.000844,0.005129,0.006543,-0.000475,0.004080,-0.001417,-0.008111,1.549470,0.714602,0.002331,-0.003394,0.699519,0.728916,0.728606,0.728884,0.728631,2.915037,-0.728737,0.005572,0.000344,0.004273,SYSTEM_IDENTIFICATION
2.569963,0.010106,-0.010182,-0.045726,-2.021201,0.013285,0.021024,0.025242,0.007367,0.002068,-9.809989,0.006887,-0.000142,0.004908,0.006319,-0.001295,0.004825,-0.001363,-0.008110,1.549508,0.714589,0.002350,-0.003375,0.699532,0.729022,0.728442,0.729320,0.728164,2.914948,-0.728719,0.005630,0.000455,0.004265,SYSTEM_IDENTIFICATION
2.579995,0.010032,-0.010142,-0.045789,-2.021265,0.013660,0.021421,0.025087,-0.002680,-0.000442,-9.809160,0.005927,-0.001313,0.005152,0.007030,0.000450,0.003342,-0.001317,-0.008118,1.549548,0.714575,0.002369,-0.003361,0.699547,0.728737,0.728685,0.728703,0.728750,2.914876,-0.728700,0.005630,0.000616,0.004258,SYSTEM_IDENTIFICATION
2.590016,0.010021,-0.010046,-0.045888,-2.021374,0.014370,0.022200,0.024832,-0.004159,0.011943,-9.805002,0.007191,0.000639,0.003961,0.007299,0.001101,0.003754,-0.001210,-0.008112,1.549615,0.714551,0.002405,-0.003321,0.699571,0.728638,0.728770,0.728412,0.728980,2.914800,-0.728674,0.005675,0.000849,0.004250,SYSTEM_IDENTIFICATION
2.599891,0.009875,-0.009991,-0.045925,-2.021391,0.014667,0.022559,0.024733,0.000492,-0.000783,-9.803010,0.007337,0.001337,0.004241,0.007178,0.001833,0.003737,-0.001152,-0.008099,1.549649,0.714540,0.002421,-0.003296,0.699583,0.728539,0.728833,0.728546,0.728778,2.914696,-0.728630,0.005681,0.001212,0.004237,SYSTEM_IDENTIFICATION
2.609952,0.010061,-0.009856,-0.045991,-2.021487,0.015460,0.023247,0.024508,-0.003600,0.001919,-9.809463,0.006204,0.001316,0.004391,0.006070,0.001476,0.003920,-0.001051,-0.008072,1.549716,0.714516,0.002448,-0.003252,0.699607,0.728577,0.728710,0.728784,0.728449,2.914520,-0.728618,0.005598,0.001299,0.004231,SYSTEM_IDENTIFICATION
2.619875,0.009923,-0.009781,-0.046011,-2.021527,0.015797,0.023649,0.024380,0.003614,-0.001966,-9.810064,0.005831,0.000871,0.004831,0.006961,0.000645,0.004792,-0.001006,-0.008063,1.549753,0.714503,0.002461,-0.003232,0.699621,0.728739,0.728511,0.728816,0.728406,2.914473,-0.728579,0.005773,0.001564,0.004217,SYSTEM_IDENTIFICATION
2.630299,0.010424,-0.009701,-0.046023,-2.021561,0.016193,0.024067,0.024279,0.005718,-0.003169,-9.800536,0.007108,0.000496,0.004903,0.007305,0.000387,0.004133,-0.000950,-0.008057,1.549791,0.714490,0.002479,-0.003211,0.699634,0.728934,0.728223,0.728692,0.728467,2.914315,-0.728560,0.005841,0.001756,0.004210,SYSTEM_IDENTIFICATION
2.640044,0.009745,-0.009616,-0.046030,-2.021610,0.016535,0.024431,0.024209,-0.003898,0.001471,-9.799677,0.007403,0.001047,0.004942,0.006636,0.001660,0.003432,-0.000892,-0.008046,1.549829,0.714476,0.002496,-0.003186,0.699648,0.728632,0.728479,0.728532,0.728597,2.914240,-0.728544,0.005898,0.001987,0.004203,SYSTEM_IDENTIFICATION
2.649887,0.009843,-0.009433,-0.046020,-2.021691,0.017289,0.025189,0.024080,0.002027,-0.003547,-9.801321,0.005934,0.003254,0.004294,0.005778,0.002924,0.003547,-0.000795,-0.008001,1.549893,0.714454,0.002515,-0.003136,0.699671,0.728073,0.729025,0.728355,0.728724,2.914178,-0.728528,0.005878,0.002130,0.004196,SYSTEM_IDENTIFICATION
2.659860,0.009973,-0.009334,-0.046003,-2.021725,0.017624,0.025587,0.023955,-0.007527,-0.001177,-9.804073,0.006918,0.002251,0.003119,0.006711,0.001784,0.004070,-0.000741,-0.007981,1.549917,0.714445,0.002527,-0.003110,0.699680,0.728700,0.728359,0.728567,0.728375,2.914001,-0.728500,0.006042,0.002360,0.004184,SYSTEM_IDENTIFICATION
2.669874,0.010014,-0.009228,-0.045986,-2.021767,0.018035,0.025911,0.023887,-0.008126,-0.009478,-9.798459,0.006384,0.001250,0.004527,0.006109,0.000757,0.004104,-0.000691,-0.007969,1.549953,0.714433,0.002541,-0.003088,0.699693,0.728778,0.728278,0.728925,0.728020,2.914002,-0.728482,0.006163,0.002610,0.004178,SYSTEM_IDENTIFICATION
2.679875,0.010001,-0.009117,-0.045961,-2.021803,0.018393,0.026285,0.023800,-0.003726,-0.001141,-9.803490,0.006253,0.002294,0.005252,0.006643,0.002366,0.004087,-0.000643,-0.007948,1.549993,0.714419,0.002551,-0.003064,0.699707,0.728397,0.728594,0.728477,0.728462,2.913930,-0.728468,0.006295,0.002783,0.004172,SYSTEM_IDENTIFICATION
2.689895,0.010020,-0.009002,-0.045928,-2.021834,0.018776,0.026692,0.023732,0.006963,0.001256,-9.796710,0.007032,0.002014,0.004262,0.007309,0.002853,0.004305,-0.000588,-0.007930,1.550025,0.714408,0.002565,-0.003038,0.699719,0.728507,0.728455,0.728384,0.728524,2.913870,-0.728453,0.006405,0.002953,0.004164,SYSTEM_IDENTIFICATION
2.699997,0.010102,-0.008758,-0.045852,-2.021902,0.019459,0.027432,0.023667,0.006963,0.001256,-9.796710,0.007596,0.002475,0.003426,0.007309,0.002853,0.004305,-0.000473,-0.007882,1.550083,0.714387,0.002589,-0.002981,0.699740,0.728507,0.728455,0.728384,0.728524,2.913870,-0.728440,0.006465,0.003130,0.004158,SYSTEM_IDENTIFICATION
2.709863,0.009866,-0.008629,-0.045809,-2.021940,0.019813,0.027742,0.023623,-0.005477,-0.002878,-9.797348,0.007265,0.003303,0.004416,0.007265,0.003599,0.003430,-0.000416,-0.007854,1.550117,0.714375,0.002599,-0.002951,0.699752,0.728461,0.728490,0.728427,0.728384,2.913762,-0.728420,0.006633,0.003497,0.004146,SYSTEM_IDENTIFICATION
2.719884,0.010021,-0.008495,-0.045758,-2.021964,0.020180,0.028129,0.023611,-0.003228,-0.006268,-9.807465,0.007462,0.002642,0.003642,0.008042,0.003195,0.004284,-0.000358,-0.007831,1.550145,0.714365,0.002612,-0.002922,0.699762,0.728615,0.728311,0.728458,0.728298,2.913682,-0.728408,0.006719,0.003600,0.004140,SYSTEM_IDENTIFICATION
2.729868,0.009984,-0.008357,-0.045700,-2.021982,0.020557,0.028493,0.023567,0.004472,-0.000616,-9.796136,0.008206,0.003073,0.005070,0.006771,0.003471,0.003392,-0.000294,-0.007804,1.550184,0.714352,0.002626,-0.002890,0.699776,0.728449,0.728418,0.728433,0.728332,2.913633,-0.728408,0.006718,0.003599,0.004140,SYSTEM_IDENTIFICATION
2.740035,0.010167,-0.008105,-0.045592,-2.022070,0.021208,0.029256,0.023581,0.004472,-0.000616,-9.796136,0.007065,0.003175,0.003526,0.006771,0.003471,0.003392,-0.000182,-0.007748,1.550244,0.714330,0.002646,-0.002831,0.699798,0.728449,0.728418,0.728433,0.728332,2.913633,-0.728394,0.006843,0.003933,0.004127,SYSTEM_IDENTIFICATION
2.749869,0.009834,-0.007973,-0.045526,-2.022104,0.021505,0.029650,0.023536,-0.001690,-0.000805,-9.792864,0.007274,0.004340,0.003798,0.007575,0.003885,0.003307,-0.000126,-0.007711,1.550273,0.714320,0.002653,-0.002798,0.699808,0.728325,0.728564,0.728278,0.728409,2.913576,-0.728377,0.007015,0.004302,0.004115,SYSTEM_IDENTIFICATION
2.759969,0.010100,-0.007837,-0.045453,-2.022132,0.021785,0.030023,0.023536,-0.001690,-0.000805,-9.792864,0.007789,0.003666,0.004235,0.007575,0.003885,0.003307,-0.000065,-0.007680,1.550305,0.714309,0.002664,-0.002765,0.699820,0.728325,0.728564,0.728278,0.728409,2.913576,-0.728366,0.007034,0.004406,0.004110,SYSTEM_IDENTIFICATION
2.769946,0.009977,-0.007697,-0.045372,-2.022154,0.022101,0.030379,0.023548,-0.011091,-0.001723,-9.794830,0.008100,0.003834,0.003992,0.007972,0.002578,0.004180,-0.000001,-0.007647,1.550336,0.714298,0.002675,-0.002732,0.699831,0.728772,0.728050,0.728629,0.728012,2.913463,-0.728360,0.007056,0.004578,0.004104,SYSTEM_IDENTIFICATION
2.779884,0.009938,-0.007409,-0.045234,-2.022249,0.022696,0.030963,0.023419,-0.011091,-0.001723,-9.794830,0.008508,0.003877,0.004858,0.007972,0.002578,0.004180,0.000129,-0.007588,1.550410,0.714272,0.002701,-0.002665,0.699858,0.728772,0.728050,0.728629,0.728012,2.913463,-0.728356,0.007088,0.004740,0.004098,SYSTEM_IDENTIFICATION
2.789857,0.009973,-0.007260,-0.045154,-2.022287,0.022935,0.031270,0.023415,-0.010707,0.004156,-9.792577,0.008339,0.003447,0.003510,0.007002,0.003381,0.003389,0.000194,-0.007558,1.550437,0.714263,0.002714,-0.002631,0.699867,0.728558,0.728229,0.728618,0.728018,2.913423,-0.728324,0.007156,0.005019,0.004083,SYSTEM_IDENTIFICATION
2.799801,0.009944,-0.007107,-0.045067,-2.022319,0.023184,0.031551,0.023416,-0.002618,-0.002702,-9.787965,0.007159,0.003324,0.004260,0.007972,0.003385,0.003786,0.000250,-0.007530,1.550470,0.714251,0.002724,-0.002602,0.699879,0.728535,0.728194,0.728681,0.727887,2.913297,-0.728316,0.007113,0.005132,0.004079,SYSTEM_IDENTIFICATION
2.809816,0.010015,-0.007107,-0.045067,-2.022319,0.023184,0.031551,0.023416,0.003292,0.002760,-9.792716,0.007159,0.003324,0.004260,0.009797,0.005016,0.004943,0.000250,-0.007530,1.550470,0.714251,0.002724,-0.002602,0.699879,0.728542,0.728142,0.728119,0.728460,2.913264,-0.728309,0.007161,0.005275,0.004072,SYSTEM_IDENTIFICATION
2.819887,0.010071,-0.006681,-0.044831,-2.022486,0.024035,0.032579,0.023423,0.003292,0.002760,-9.792716,0.009108,0.004727,0.004227,0.009797,0.005016,0.004943,0.000456,-0.007421,1.550578,0.714213,0.002760,-0.002490,0.699918,0.728542,0.728142,0.728119,0.728460,2.913264,-0.728284,0.007108,0.005507,0.004059,SYSTEM_IDENTIFICATION
2.829851,0.009964,-0.006531,-0.044738,-2.022528,0.024317,0.032883,0.023416,-0.009398,-0.004663,-9.796520,0.009084,0.004118,0.004425,0.009389,0.005127,0.003754,0.000528,-0.007386,1.550613,0.714201,0.002773,-0.002453,0.699931,0.728579,0.728017,0.728332,0.728207,2.913134,-0.728275,0.007113,0.005655,0.004052,SYSTEM_IDENTIFICATION
2.839883,0.010032,-0.006531,-0.044738,-2.022528,0.024317,0.032883,0.023416,-0.009398,-0.004663,-9.796520,0.009084,0.004118,0.004425,0.009389,0.005127,0.003754,0.000528,-0.007386,1.550613,0.714201,0.002773,-0.002453,0.699931,0.728579,0.728017,0.728332,0.728207,2.913134,-0.728265,0.007093,0.005785,0.004045,SYSTEM_IDENTIFICATION
2.849892,0.010009,-0.006268,-0.044573,-2.022662,0.024811,0.033384,0.023322,-0.003254,0.003286,-9.801085,0.009023,0.005646,0.005074,0.009369,0.004407,0.004148,0.000671,-0.007295,1.550689,0.714174,0.002793,-0.002370,0.699958,0.728487,0.728014,0.728286,0.728272,2.913059,-0.728265,0.007123,0.005815,0.004044,SYSTEM_IDENTIFICATION
2.860063,0.010171,-0.005990,-0.044380,-2.022770,0.025220,0.033962,0.023270,-0.003254,0.003286,-9.801085,0.008610,0.005140,0.004157,0.009369,0.004407,0.004148,0.000813,-0.007209,1.550763,0.714148,0.002814,-0.002290,0.699985,0.728487,0.728014,0.728286,0.728272,2.913059,-0.728247,0.007050,0.005838,0.004037,SYSTEM_IDENTIFICATION
2.869846,0.009783,-0.005859,-0.044287,-2.022823,0.025443,0.034211,0.023227,0.001863,-0.003772,-9.795209,0.009467,0.005538,0.003135,0.009660,0.005247,0.003484,0.000888,-0.007162,1.550789,0.714139,0.002824,-0.002247,0.699994,0.728441,0.728070,0.728094,0.728382,2.912987,-0.728202,0.006764,0.005961,0.004017,SYSTEM_IDENTIFICATION
2.879921,0.010075,-0.005859,-0.044287,-2.022823,0.025443,0.034211,0.023227,0.001863,-0.003772,-9.795209,0.009467,0.005538,0.003135,0.009660,0.005247,0.003484,0.000888,-0.007162,1.550789,0.714139,0.002824,-0.002247,0.699994,0.728441,0.728070,0.728094,0.728382,2.912987,-0.728186,0.006681,0.006018,0.004011,SYSTEM_IDENTIFICATION
2.889887,0.009966,-0.005722,-0.044188,-2.022870,0.025707,0.034529,0.023203,-0.004594,-0.008816,-9.792263,0.009572,0.005191,0.004269,0.009436,0.005977,0.004773,0.000964,-0.007118,1.550824,0.714127,0.002835,-0.002204,0.700007,0.728478,0.727941,0.728147,0.728241,2.912806,-0.728186,0.006706,0.006044,0.004010,SYSTEM_IDENTIFICATION
2.899862,0.009975,-0.005302,-0.043859,-2.022987,0.026387,0.035334,0.023205,-0.009212,-0.004540,-9.795048,0.009480,0.005200,0.004318,0.010144,0.004217,0.003541,0.001195,-0.006987,1.550932,0.714089,0.002872,-0.002076,0.700046,0.728794,0.727564,0.728311,0.728075,2.912745,-0.728174,0.006633,0.006138,0.004003,SYSTEM_IDENTIFICATION
2.910142,0.010280,-0.005302,-0.043859,-2.022987,0.026387,0.035334,0.023205,-0.005652,0.005875,-9.792097,0.009480,0.005200,0.004318,0.008471,0.006957,0.003286,0.001195,-0.006987,1.550932,0.714089,0.002872,-0.002076,0.700046,0.728154,0.728188,0.728098,0.728256,2.912695,-0.728149,0.006297,0.006343,0.003983,SYSTEM_IDENTIFICATION
2.919863,0.009721,-0.005164,-0.043742,-2.023013,0.026530,0.035600,0.023228,-0.003732,0.006842,-9.790696,0.008767,0.006899,0.003801,0.009120,0.006869,0.003399,0.001264,-0.006929,1.550962,0.714078,0.002877,-0.002031,0.700057,0.727956,0.728396,0.727857,0.728486,2.912695,-0.728145,0.006187,0.006348,0.003977,SYSTEM_IDENTIFICATION
2.929889,0.010026,-0.005021,-0.043619,-2.023033,0.026753,0.035874,0.023233,-0.004028,-0.000120,-9.794216,0.008950,0.007417,0.004504,0.009053,0.007864,0.003093,0.001334,-0.006867,1.550998,0.714066,0.002880,-0.001985,0.700070,0.728010,0.728290,0.727750,0.728545,2.912595,-0.728145,0.006205,0.006377,0.003976,SYSTEM_IDENTIFICATION
2.939929,0.010040,-0.004581,-0.043241,-2.023056,0.027309,0.036710,0.023185,-0.002089,0.005924,-9.794161,0.009314,0.008158,0.004015,0.009772,0.008194,0.004762,0.001552,-0.006670,1.551094,0.714032,0.002889,-0.001838,0.700104,0.728255,0.728071,0.727858,0.728397,2.912580,-0.728140,0.006139,0.006372,0.003969,SYSTEM_IDENTIFICATION
2.949868,0.009939,-0.004581,-0.043241,-2.023056,0.027309,0.036710,0.023185,-0.003736,0.001126,-9.800539,0.009314,0.008158,0.004015,0.009403,0.007973,0.003223,0.001552,-0.006670,1.551094,0.714032,0.002889,-0.001838,0.700104,0.728177,0.728129,0.727801,0.728454,2.912561,-0.728131,0.005886,0.006305,0.003960,SYSTEM_IDENTIFICATION
2.959927,0.010059,-0.004428,-0.043108,-2.023052,0.027450,0.036927,0.023138,-0.004269,-0.003243,-9.795635,0.009228,0.008152,0.004019,0.010059,0.008015,0.003209,0.001625,-0.006602,1.551126,0.714021,0.002891,-0.001788,0.700116,0.728207,0.728108,0.727783,0.728464,2.912561,-0.728130,0.005846,0.006325,0.003951,SYSTEM_IDENTIFICATION
2.970044,0.010117,-0.004271,-0.042968,-2.023047,0.027635,0.037191,0.023148,0.001981,-0.001490,-9.796680,0.010056,0.008126,0.003503,0.010030,0.008172,0.003611,0.001704,-0.006534,1.551154,0.714011,0.002895,-0.001736,0.700126,0.728204,0.728113,0.727644,0.728558,2.912519,-0.728126,0.005725,0.006262,0.003944,SYSTEM_IDENTIFICATION
2.979863,0.009819,-0.003798,-0.042526,-2.023019,0.028041,0.037974,0.023096,-0.002218,0.001142,-9.802797,0.009055,0.007182,0.003980,0.010303,0.007193,0.002986,0.001930,-0.006340,1.551245,0.713979,0.002908,-0.001588,0.700159,0.728453,0.727876,0.727853,0.728338,2.912519,-0.728127,0.005604,0.006239,0.003939,SYSTEM_IDENTIFICATION
2.989866,0.010003,-0.003798,-0.042526,-2.023019,0.028041,0.037974,0.023096,-0.002454,0.005875,-9.797235,0.009055,0.007182,0.003980,0.008475,0.007245,0.003262,0.001930,-0.006340,1.551245,0.713979,0.002908,-0.001588,0.700159,0.728270,0.728069,0.728019,0.728150,2.912508,-0.728127,0.005189,0.006229,0.003923,SYSTEM_IDENTIFICATION
2.999926,0.010060,-0.003634,-0.042366,-2.023000,0.028228,0.038214,0.023106,-0.010796,0.004458,-9.792149,0.009147,0.007593,0.003389,0.010683,0.007814,0.003886,0.002001,-0.006276,1.551272,0.713970,0.002912,-0.001540,0.700169,0.728338,0.728014,0.727659,0.728496,2.912508,-0.728131,0.005110,0.006239,0.003917,SYSTEM_IDENTIFICATION
3.009875,0.009949,-0.003471,-0.042210,-2.022985,0.028317,0.038397,0.023142,-0.000092,0.008398,-9.795356,0.010231,0.007693,0.003903,0.008692,0.007446,0.002905,0.002082,-0.006212,1.551303,0.713959,0.002918,-0.001489,0.700180,0.728391,0.727966,0.727687,0.728464,2.912508,-0.728131,0.005132,0.006266,0.003916,SYSTEM_IDENTIFICATION
3.021801,0.011926,-0.003305,-0.042049,-2.022965,0.028410,0.038639,0.023145,-0.006380,0.000874,-9.796036,0.008926,0.007585,0.003548,0.009663,0.007823,0.003871,0.002152,-0.006148,1.551331,0.713949,0.002921,-0.001441,0.700190,0.728297,0.728077,0.727755,0.728395,2.912525,-0.728141,0.004810,0.006219,0.003906,SYSTEM_IDENTIFICATION
3.029863,0.008062,-0.002962,-0.041710,-2.022949,0.028589,0.039072,0.023171,-0.006785,-0.004459,-9.792161,0.009702,0.008537,0.003538,0.009050,0.008022,0.003498,0.002304,-0.006008,1.551393,0.713928,0.002926,-0.001338,0.700212,0.728234,0.728161,0.727579,0.728588,2.912562,-0.728145,0.004492,0.006144,0.003896,SYSTEM_IDENTIFICATION
3.039948,0.010085,-0.002786,-0.041532,-2.022932,0.028735,0.039246,0.023170,0.000613,0.004738,-9.798582,0.008960,0.008010,0.003639,0.008547,0.007778,0.003175,0.002374,-0.005941,1.551421,0.713918,0.002928,-0.001289,0.700222,0.728310,0.728094,0.727819,0.728338,2.912562,-0.728145,0.004520,0.006196,0.003893,SYSTEM_IDENTIFICATION
3.049859,0.009911,-0.002606,-0.041351,-2.022919,0.028823,0.039497,0.023173,-0.004005,0.001451,-9.794271,0.008789,0.007691,0.004064,0.008586,0.007993,0.003628,0.002443,-0.005877,1.551452,0.713907,0.002930,-0.001242,0.700234,0.728388,0.728021,0.727773,0.728400,2.912582,-0.728147,0.004444,0.006166,0.003888,SYSTEM_IDENTIFICATION
3.059911,0.010052,-0.002236,-0.040971,-2.022878,0.029022,0.039896,0.023141,-0.007244,0.005597,-9.798899,0.009206,0.007923,0.004723,0.009090,0.007770,0.004222,0.002582,-0.005744,1.551522,0.713882,0.002933,-0.001146,0.700259,0.728376,0.728000,0.727626,0.728576,2.912579,-0.728150,0.004343,0.006210,0.003881,SYSTEM_IDENTIFICATION
3.069852,0.009941,-0.002047,-0.040775,-2.022851,0.029138,0.040028,0.023166,-0.003348,-0.000183,-9.790923,0.009151,0.008195,0.004133,0.009453,0.009772,0.002666,0.002654,-0.005676,1.551554,0.713871,0.002935,-0.001097,0.700270,0.728144,0.728225,0.727347,0.728882,2.912599,-0.728154,0.004156,0.006232,0.003868,SYSTEM_IDENTIFICATION
3.079887,0.010035,-0.001857,-0.040568,-2.022839,0.029248,0.040232,0.023190,-0.002067,-0.004768,-9.794496,0.009388,0.009355,0.003197,0.009382,0.008962,0.002793,0.002728,-0.005598,1.551579,0.713862,0.002934,-0.001043,0.700279,0.728191,0.728202,0.727363,0.728843,2.912599,-0.728161,0.004067,0.006192,0.003862,SYSTEM_IDENTIFICATION
3.090006,0.010119,-0.001664,-0.040357,-2.022819,0.029337,0.040387,0.023212,-0.004659,0.007870,-9.784124,0.008945,0.008406,0.004093,0.007765,0.008119,0.004107,0.002798,-0.005529,1.551611,0.713851,0.002934,-0.000994,0.700291,0.728334,0.728063,0.727814,0.728405,2.912616,-0.728165,0.003966,0.006162,0.003857,SYSTEM_IDENTIFICATION
3.099957,0.009951,-0.001468,-0.040141,-2.022792,0.029350,0.040565,0.023288,-0.003786,-0.001706,-9.795576,0.007735,0.007855,0.004455,0.007224,0.006440,0.003552,0.002858,-0.005463,1.551646,0.713839,0.002933,-0.000949,0.700303,0.728548,0.727850,0.728282,0.727979,2.912659,-0.728170,0.003872,0.006149,0.003851,SYSTEM_IDENTIFICATION
3.109856,0.009899,-0.001073,-0.039697,-2.022738,0.029556,0.040930,0.023272,0.007962,0.001375,-9.802629,0.006768,0.006997,0.004295,0.006006,0.006132,0.003355,0.002965,-0.005352,1.551706,0.713818,0.002932,-0.000872,0.700325,0.728328,0.728080,0.728048,0.728226,2.912681,-0.728191,0.003790,0.006335,0.003835,SYSTEM_IDENTIFICATION
3.119923,0.010067,-0.000874,-0.039468,-2.022709,0.029598,0.041179,0.023236,0.001541,0.004426,-9.798626,0.006188,0.005978,0.003697,0.006431,0.005845,0.003093,0.003013,-0.005302,1.551734,0.713808,0.002932,-0.000837,0.700335,0.728482,0.727953,0.728169,0.728124,2.912728,-0.728191,0.003816,0.006377,0.003832,SYSTEM_IDENTIFICATION
3.129896,0.009973,-0.000673,-0.039235,-2.022676,0.029671,0.041387,0.023223,-0.005904,-0.001998,-9.786966,0.005940,0.006526,0.003751,0.005572,0.006381,0.003570,0.003059,-0.005247,1.551762,0.713798,0.002929,-0.000801,0.700345,0.728309,0.728149,0.728069,0.728236,2.912762,-0.728193,0.003822,0.006560,0.003827,SYSTEM_IDENTIFICATION
3.139920,0.010024,-0.000470,-0.038997,-2.022639,0.029746,0.041576,0.023281,-0.007017,0.004191,-9.793886,0.005563,0.006515,0.004064,0.007128,0.005544,0.004409,0.003102,-0.005192,1.551793,0.713787,0.002926,-0.000767,0.700356,0.728665,0.727785,0.728061,0.728261,2.912773,-0.728198,0.003862,0.006697,0.003822,SYSTEM_IDENTIFICATION
3.149869,0.009949,-0.000078,-0.038503,-2.022606,0.029798,0.041887,0.023314,-0.002771,0.005178,-9.801571,0.005834,0.006428,0.003934,0.005535,0.007265,0.003788,0.003202,-0.005090,1.551857,0.713765,0.002925,-0.000695,0.700379,0.728218,0.728227,0.728032,0.728316,2.912793,-0.728220,0.003873,0.007062,0.003806,SYSTEM_IDENTIFICATION
3.159890,0.010021,0.000120,-0.038251,-2.022582,0.029815,0.042053,0.023249,-0.002459,-0.000682,-9.802333,0.006070,0.007421,0.003786,0.006572,0.007885,0.002816,0.003249,-0.005028,1.551886,0.713755,0.002921,-0.000657,0.700389,0.728215,0.728265,0.727728,0.728635,2.912843,-0.728219,0.003885,0.007098,0.003803,SYSTEM_IDENTIFICATION
3.170016,0.010126,0.000321,-0.037995,-2.022553,0.029841,0.042231,0.023209,-0.004763,0.002598,-9.791089,0.006141,0.008009,0.003317,0.004286,0.008177,0.002597,0.003298,-0.004962,1.551911,0.713746,0.002915,-0.000616,0.700398,0.727973,0.728559,0.728024,0.728321,2.912877,-0.728218,0.003875,0.007193,0.003798,SYSTEM_IDENTIFICATION
3.179972,0.009956,0.000730,-0.037477,-2.022515,0.029929,0.042499,0.023217,-0.005128,-0.002023,-9.805089,0.005508,0.007531,0.004368,0.005633,0.007521,0.004130,0.003373,-0.004831,1.551968,0.713726,0.002895,-0.000543,0.700419,0.728365,0.728162,0.728080,0.728267,2.912873,-0.728221,0.003866,0.007252,0.003794,SYSTEM_IDENTIFICATION
3.189880,0.009908,0.000936,-0.037213,-2.022489,0.029894,0.042643,0.023204,-0.002914,0.011264,-9.792366,0.005895,0.008122,0.004108,0.006082,0.008183,0.003332,0.003419,-0.004764,1.551998,0.713716,0.002888,-0.000503,0.700429,0.728428,0.728075,0.727881,0.728498,2.912883,-0.728228,0.004013,0.007387,0.003782,SYSTEM_IDENTIFICATION
3.199897,0.010017,0.001144,-0.036945,-2.022457,0.029886,0.042769,0.023246,-0.002050,0.002931,-9.801781,0.006042,0.007360,0.005078,0.005336,0.007610,0.003772,0.003466,-0.004703,1.552037,0.713702,0.002884,-0.000464,0.700443,0.728534,0.727951,0.728158,0.728268,2.912911,-0.728232,0.003986,0.007451,0.003776,SYSTEM_IDENTIFICATION
3.209951,0.010054,0.001543,-0.036412,-2.022378,0.029810,0.043070,0.023225,-0.009292,0.007754,-9.789716,0.006784,0.007885,0.003062,0.006829,0.008206,0.002722,0.003562,-0.004575,1.552086,0.713685,0.002873,-0.000385,0.700461,0.728500,0.728019,0.727893,0.728516,2.912927,-0.728241,0.003971,0.007542,0.003769,SYSTEM_IDENTIFICATION
3.219914,0.009963,0.001543,-0.036412,-2.022378,0.029810,0.043070,0.023225,0.000481,0.009272,-9.791662,0.006784,0.007885,0.003062,0.005941,0.009363,0.003903,0.003562,-0.004575,1.552086,0.713685,0.002873,-0.000385,0.700461,0.728202,0.728364,0.727719,0.728680,2.912965,-0.728241,0.003972,0.007542,0.003769,SYSTEM_IDENTIFICATION
3.229871,0.009957,0.001946,-0.035866,-2.022280,0.029701,0.043397,0.023281,0.004609,0.008002,-9.798141,0.007335,0.009436,0.003526,0.006775,0.009424,0.002644,0.003667,-0.004423,1.552140,0.713666,0.002857,-0.000294,0.700480,0.728387,0.728211,0.727606,0.728818,2.913023,-0.728255,0.003878,0.007718,0.003759,SYSTEM_IDENTIFICATION
3.239878,0.010007,0.002137,-0.035598,-2.022238,0.029638,0.043540,0.023273,-0.003299,0.004174,-9.796141,0.006594,0.009633,0.003511,0.006473,0.009863,0.003421,0.003719,-0.004344,1.552166,0.713657,0.002848,-0.000248,0.700489,0.728282,0.728328,0.727735,0.728675,2.913020,-0.728279,0.003717,0.007769,0.003751,SYSTEM_IDENTIFICATION
3.249781,0.009903,0.002329,-0.035327,-2.022191,0.029593,0.043567,0.023253,-0.006127,0.002681,-9.797890,0.006704,0.008959,0.004079,0.006384,0.008486,0.003271,0.003772,-0.004270,1.552196,0.713647,0.002841,-0.000203,0.700500,0.728550,0.728075,0.728059,0.728385,2.913070,-0.728287,0.003619,0.007775,0.003745,SYSTEM_IDENTIFICATION
3.259860,0.010079,0.002522,-0.035054,-2.022139,0.029553,0.043658,0.023253,0.004317,0.002916,-9.796406,0.006095,0.008446,0.003749,0.006488,0.009964,0.001936,0.003820,-0.004200,1.552224,0.713637,0.002834,-0.000161,0.700510,0.728423,0.728255,0.727920,0.728550,2.913148,-0.728294,0.003525,0.007740,0.003739,SYSTEM_IDENTIFICATION
3.270181,0.010321,0.002890,-0.034495,-2.022036,0.029440,0.043928,0.023291,0.004317,0.002916,-9.796406,0.005643,0.009331,0.004231,0.006488,0.009964,0.001936,0.003915,-0.004047,1.552275,0.713619,0.002815,-0.000073,0.700528,0.728423,0.728255,0.727920,0.728550,2.913148,-0.728305,0.003464,0.007759,0.003734,SYSTEM_IDENTIFICATION
3.279903,0.009722,0.003065,-0.034210,-2.021986,0.029425,0.044001,0.023323,-0.002182,0.004509,-9.799435,0.005871,0.008841,0.004140,0.005519,0.010410,0.002752,0.003962,-0.003974,1.552306,0.713608,0.002806,-0.000030,0.700540,0.728361,0.728341,0.727924,0.728592,2.913218,-0.728328,0.003311,0.007784,0.003726,SYSTEM_IDENTIFICATION
3.289871,0.009968,0.003065,-0.034210,-2.021986,0.029425,0.044001,0.023323,-0.002182,0.004509,-9.799435,0.005871,0.008841,0.004140,0.005519,0.010410,0.002752,0.003962,-0.003974,1.552306,0.713608,0.002806,-0.000030,0.700540,0.728361,0.728341,0.727924,0.728592,2.913218,-0.728341,0.003248,0.007817,0.003718,SYSTEM_IDENTIFICATION
3.299876,0.010005,0.003419,-0.033633,-2.021874,0.029288,0.044117,0.023317,-0.007020,-0.010055,-9.800471,0.005439,0.010789,0.003301,0.005848,0.009031,0.003290,0.004051,-0.003796,1.552356,0.713591,0.002775,0.000065,0.700557,0.728569,0.728236,0.728009,0.728547,2.913361,-0.728351,0.003143,0.007737,0.003713,SYSTEM_IDENTIFICATION
3.309910,0.010034,0.003760,-0.033043,-2.021768,0.029225,0.044204,0.023274,-0.007020,-0.010055,-9.800471,0.004164,0.008208,0.003231,0.005848,0.009031,0.003290,0.004131,-0.003651,1.552406,0.713574,0.002753,0.000144,0.700575,0.728569,0.728236,0.728009,0.728547,2.913361,-0.728362,0.003090,0.007646,0.003708,SYSTEM_IDENTIFICATION
3.319932,0.010022,0.003923,-0.032742,-2.021720,0.029158,0.044303,0.023281,-0.010948,-0.001127,-9.798603,0.003786,0.008693,0.003430,0.003223,0.008514,0.003018,0.004162,-0.003580,1.552430,0.713565,0.002739,0.000181,0.700584,0.728383,0.728489,0.728249,0.728328,2.913448,-0.728379,0.003015,0.007666,0.003697,SYSTEM_IDENTIFICATION
3.329985,0.010053,0.004086,-0.032439,-2.021666,0.029093,0.044288,0.023270,-0.010948,-0.001127,-9.798603,0.003641,0.008521,0.003475,0.003223,0.008514,0.003018,0.004191,-0.003510,1.552455,0.713556,0.002725,0.000216,0.700592,0.728383,0.728489,0.728249,0.728328,2.913448,-0.728379,0.003016,0.007666,0.003697,SYSTEM_IDENTIFICATION
3.339993,0.010008,0.004086,-0.032439,-2.021666,0.029093,0.044288,0.023270,0.001640,0.001418,-9.794283,0.003641,0.008521,0.003475,0.003766,0.009372,0.003376,0.004191,-0.003510,1.552455,0.713556,0.002725,0.000216,0.700592,0.728378,0.728534,0.727987,0.728616,2.913514,-0.728398,0.002990,0.007704,0.003689,SYSTEM_IDENTIFICATION
3.349863,0.009870,0.004555,-0.031502,-2.021497,0.028825,0.044471,0.023196,-0.007281,-0.001729,-9.807028,0.004721,0.008992,0.003833,0.002551,0.008676,0.003047,0.004286,-0.003288,1.552537,0.713528,0.002681,0.000328,0.700622,0.728318,0.728581,0.728110,0.728505,2.913514,-0.728398,0.002986,0.007709,0.003688,SYSTEM_IDENTIFICATION
3.359878,0.010015,0.004555,-0.031502,-2.021497,0.028825,0.044471,0.023196,-0.002895,-0.003134,-9.799032,0.004721,0.008992,0.003833,0.004039,0.008466,0.003553,0.004286,-0.003288,1.552537,0.713528,0.002681,0.000328,0.700622,0.728643,0.728284,0.727979,0.728686,2.913592,-0.728426,0.002855,0.007777,0.003675,SYSTEM_IDENTIFICATION
3.369973,0.010095,0.004709,-0.031183,-2.021435,0.028743,0.044524,0.023195,-0.000526,0.001611,-9.793259,0.003813,0.008539,0.004088,0.003010,0.008722,0.002921,0.004317,-0.003218,1.552567,0.713517,0.002668,0.000364,0.700632,0.728456,0.728459,0.728230,0.728448,2.913592,-0.728426,0.002843,0.007800,0.003672,SYSTEM_IDENTIFICATION
3.379912,0.009939,0.004865,-0.030862,-2.021370,0.028645,0.044605,0.023227,-0.001805,-0.002699,-9.794312,0.003269,0.008829,0.003330,0.003857,0.010133,0.003257,0.004344,-0.003146,1.552591,0.713509,0.002652,0.000399,0.700641,0.728318,0.728658,0.728057,0.728670,2.913703,-0.728438,0.002798,0.007856,0.003666,SYSTEM_IDENTIFICATION
3.389964,0.010052,0.005160,-0.030220,-2.021274,0.028438,0.044638,0.023164,-0.009792,0.003639,-9.805706,0.002865,0.010076,0.003748,0.002567,0.009596,0.002943,0.004398,-0.002979,1.552647,0.713490,0.002613,0.000478,0.700661,0.728102,0.728857,0.727932,0.728811,2.913702,-0.728453,0.002770,0.007920,0.003662,SYSTEM_IDENTIFICATION
3.399884,0.009920,0.005310,-0.029897,-2.021219,0.028314,0.044672,0.023133,0.003072,0.003887,-9.811050,0.003427,0.009247,0.004128,0.002300,0.009479,0.003866,0.004426,-0.002904,1.552677,0.713479,0.002596,0.000515,0.700671,0.728493,0.728507,0.728271,0.728542,2.913813,-0.728475,0.002632,0.007842,0.003647,SYSTEM_IDENTIFICATION
3.409855,0.009971,0.005460,-0.029572,-2.021161,0.028191,0.044724,0.023044,-0.006091,0.005248,-9.800852,0.002739,0.009557,0.003512,0.004003,0.008493,0.002358,0.004449,-0.002826,1.552701,0.713471,0.002577,0.000550,0.700680,0.728522,0.728513,0.728185,0.728649,2.913869,-0.728475,0.002624,0.007852,0.003645,SYSTEM_IDENTIFICATION
3.419864,0.010009,0.005584,-0.029253,-2.021109,0.028011,0.044735,0.023004,-0.005671,0.002265,-9.804753,0.003609,0.007840,0.003421,0.003061,0.008369,0.003297,0.004478,-0.002762,1.552725,0.713462,0.002565,0.000584,0.700689,0.728884,0.728179,0.728509,0.728329,2.913901,-0.728479,0.002594,0.007871,0.003641,SYSTEM_IDENTIFICATION
3.429930,0.010066,0.005836,-0.028611,-2.020995,0.027730,0.044793,0.022891,-0.000215,0.001818,-9.801208,0.003301,0.008665,0.003594,0.003200,0.008650,0.002576,0.004532,-0.002619,1.552778,0.713444,0.002534,0.000654,0.700707,0.728478,0.728574,0.728153,0.728695,2.913900,-0.728486,0.002453,0.007931,0.003636,SYSTEM_IDENTIFICATION
3.439975,0.010045,0.005965,-0.028287,-2.020933,0.027608,0.044787,0.022840,-0.007101,0.002182,-9.803871,0.002557,0.009348,0.003317,0.002487,0.009423,0.003429,0.004554,-0.002543,1.552802,0.713436,0.002515,0.000689,0.700716,0.728199,0.728894,0.728104,0.728748,2.913944,-0.728499,0.002261,0.007998,0.003626,SYSTEM_IDENTIFICATION
3.449909,0.009934,0.006076,-0.027958,-2.020884,0.027415,0.044767,0.022822,-0.007846,0.007333,-9.801079,0.002249,0.010289,0.003510,0.003418,0.008865,0.003017,0.004573,-0.002459,1.552827,0.713427,0.002493,0.000725,0.700725,0.728339,0.728756,0.728070,0.728780,2.913944,-0.728507,0.002210,0.007984,0.003621,SYSTEM_IDENTIFICATION
3.459861,0.009952,0.006190,-0.027628,-2.020824,0.027215,0.044715,0.022754,-0.011256,0.008362,-9.812719,0.003200,0.009115,0.003932,0.004012,0.009057,0.003355,0.004601,-0.002385,1.552856,0.713417,0.002477,0.000761,0.700735,0.728711,0.728402,0.728161,0.728723,2.913997,-0.728516,0.002102,0.007927,0.003616,SYSTEM_IDENTIFICATION
3.469885,0.010024,0.006304,-0.027298,-2.020762,0.027043,0.044680,0.022646,-0.005783,0.001858,-9.797079,0.004222,0.009015,0.003509,0.004055,0.009579,0.002387,0.004636,-0.002312,1.552880,0.713408,0.002464,0.000800,0.700744,0.728743,0.728388,0.728048,0.728851,2.914030,-0.728522,0.001947,0.007903,0.003611,SYSTEM_IDENTIFICATION
3.479949,0.010064,0.006527,-0.026629,-2.020648,0.026781,0.044585,0.022650,-0.011084,-0.005623,-9.791871,0.003261,0.009541,0.003041,0.002885,0.009393,0.002779,0.004696,-0.002156,1.552921,0.713394,0.002430,0.000876,0.700758,0.728483,0.728718,0.728205,0.728681,2.914087,-0.728548,0.001537,0.007815,0.003601,SYSTEM_IDENTIFICATION
3.489902,0.009953,0.006635,-0.026291,-2.020596,0.026641,0.044534,0.022643,-0.005740,0.007415,-9.801529,0.003076,0.009237,0.003360,0.003835,0.009119,0.002259,0.004722,-0.002081,1.552944,0.713386,0.002414,0.000912,0.700766,0.728659,0.728550,0.728163,0.728714,2.914087,-0.728548,0.001519,0.007821,0.003598,SYSTEM_IDENTIFICATION
3.499872,0.009970,0.006744,-0.025952,-2.020540,0.026470,0.044499,0.022622,-0.009488,0.000098,-9.796448,0.003389,0.009214,0.003159,0.002221,0.009487,0.003601,0.004751,-0.002007,1.552966,0.713379,0.002398,0.000949,0.700774,0.728578,0.728688,0.728152,0.728774,2.914192,-0.728558,0.001404,0.007802,0.003594,SYSTEM_IDENTIFICATION
3.509875,0.010003,0.006855,-0.025612,-2.020479,0.026296,0.044416,0.022596,-0.005275,-0.000765,-9.796460,0.002001,0.009311,0.003676,0.002174,0.008753,0.003281,0.004769,-0.001931,1.552992,0.713370,0.002378,0.000982,0.700783,0.728634,0.728646,0.728393,0.728558,2.914231,-0.728577,0.001182,0.007756,0.003586,SYSTEM_IDENTIFICATION
3.519955,0.010080,0.007047,-0.024932,-2.020382,0.025957,0.044291,0.022579,-0.006281,-0.001375,-9.794690,0.002060,0.008493,0.003607,0.002473,0.007951,0.003279,0.004806,-0.001792,1.553043,0.713352,0.002342,0.001045,0.700801,0.728832,0.728476,0.728351,0.728649,2.914308,-0.728595,0.000981,0.007765,0.003577,SYSTEM_IDENTIFICATION
3.530001,0.010046,0.007147,-0.024592,-2.020328,0.025796,0.044230,0.022595,0.000245,0.006349,-9.794902,0.002340,0.008113,0.003954,0.002490,0.008470,0.003176,0.004827,-0.001726,1.553071,0.713342,0.002327,0.001076,0.700812,0.728783,0.728512,0.728301,0.728710,2.914307,-0.728595,0.000952,0.007765,0.003575,SYSTEM_IDENTIFICATION
3.539906,0.009905,0.007247,-0.024252,-2.020269,0.025573,0.044225,0.022616,-0.001248,0.005920,-9.792398,0.001939,0.008786,0.003729,0.001668,0.009088,0.003294,0.004844,-0.001655,1.553097,0.713333,0.002308,0.001107,0.700821,0.728450,0.728869,0.728179,0.728881,2.914378,-0.728607,0.000844,0.007793,0.003569,SYSTEM_IDENTIFICATION
3.549865,0.009959,0.007414,-0.023563,-2.020158,0.025168,0.044151,0.022617,0.003254,0.003093,-9.805103,0.001796,0.009675,0.002361,0.002247,0.009162,0.001748,0.004877,-0.001502,1.553136,0.713319,0.002266,0.001173,0.700835,0.728452,0.728914,0.728061,0.729001,2.914428,-0.728621,0.000714,0.007829,0.003564,SYSTEM_IDENTIFICATION
3.559897,0.010032,0.007499,-0.023217,-2.020097,0.024966,0.044125,0.022549,0.000611,-0.000421,-9.806274,0.002128,0.009478,0.002923,0.001332,0.009525,0.002922,0.004896,-0.001425,1.553156,0.713313,0.002246,0.001207,0.700841,0.728601,0.728833,0.728117,0.728931,2.914482,-0.728650,0.000319,0.007801,0.003555,SYSTEM_IDENTIFICATION
3.569848,0.009951,0.007586,-0.022871,-2.020032,0.024779,0.044042,0.022471,-0.005075,-0.004805,-9.806106,0.000748,0.008911,0.003431,0.000584,0.007604,0.003503,0.004905,-0.001353,1.553180,0.713304,0.002223,0.001236,0.700850,0.728758,0.728716,0.728669,0.728430,2.914573,-0.728650,0.000304,0.007806,0.003553,SYSTEM_IDENTIFICATION
3.580028,0.010180,0.007673,-0.022525,-2.019947,0.024628,0.043969,0.022416,-0.010123,0.002317,-9.804531,0.000828,0.007595,0.003873,0.000421,0.007563,0.003342,0.004914,-0.001292,1.553207,0.713295,0.002205,0.001261,0.700860,0.728998,0.728472,0.728710,0.728419,2.914599,-0.728656,0.000228,0.007791,0.003548,SYSTEM_IDENTIFICATION
3.589854,0.009826,0.007737,-0.022178,-2.019861,0.024417,0.043849,0.022346,-0.010971,0.004338,-9.805826,0.000413,0.006963,0.003974,-0.000064,0.007726,0.003058,0.004919,-0.001235,1.553235,0.713285,0.002187,0.001283,0.700870,0.728832,0.728615,0.728623,0.728529,2.914598,-0.728669,0.000189,0.007844,0.003544,SYSTEM_IDENTIFICATION
3.599864,0.010010,0.007870,-0.021485,-2.019683,0.023987,0.043569,0.022202,-0.011606,0.000118,-9.808712,-0.000943,0.006913,0.003472,-0.001061,0.007439,0.003056,0.004919,-0.001117,1.553284,0.713268,0.002146,0.001325,0.700887,0.728711,0.728798,0.728735,0.728475,2.914719,-0.728680,0.000070,0.007891,0.003538,SYSTEM_IDENTIFICATION
3.609925,0.010061,0.007939,-0.021139,-2.019590,0.023739,0.043496,0.022117,-0.000590,0.008115,-9.808355,-0.001003,0.007150,0.003264,-0.001398,0.006826,0.002915,0.004914,-0.001059,1.553306,0.713260,0.002124,0.001344,0.700895,0.728718,0.728793,0.728750,0.728458,2.914719,-0.728703,-0.000075,0.007934,0.003528,SYSTEM_IDENTIFICATION
3.619911,0.009986,0.007996,-0.020789,-2.019491,0.023543,0.043426,0.022097,-0.007595,-0.000139,-9.799791,-0.000894,0.007415,0.003961,-0.000212,0.006235,0.003399,0.004909,-0.000999,1.553333,0.713251,0.002101,0.001364,0.700904,0.728918,0.728578,0.728643,0.728580,2.914719,-0.728715,-0.000136,0.008006,0.003524,SYSTEM_IDENTIFICATION
3.630487,0.010576,0.008116,-0.020089,-2.019287,0.023201,0.043125,0.022143,-0.011001,-0.009885,-9.799067,-0.001548,0.008932,0.004459,-0.001579,0.008840,0.003687,0.004897,-0.000873,1.553394,0.713230,0.002052,0.001405,0.700926,0.728371,0.729151,0.728436,0.728903,2.914861,-0.728734,-0.000162,0.008074,0.003520,SYSTEM_IDENTIFICATION
3.639935,0.009448,0.008178,-0.019740,-2.019182,0.023038,0.042984,0.022178,-0.013612,0.004320,-9.797642,-0.000710,0.008603,0.003615,-0.001047,0.007933,0.003573,0.004894,-0.000804,1.553419,0.713221,0.002027,0.001429,0.700935,0.728740,0.728802,0.728488,0.728903,2.914933,-0.728778,-0.000216,0.008058,0.003507,SYSTEM_IDENTIFICATION
3.649883,0.009948,0.008233,-0.019386,-2.019068,0.022796,0.042810,0.022190,-0.006559,0.000435,-9.799580,-0.001545,0.007838,0.004016,-0.001451,0.006798,0.003421,0.004885,-0.000740,1.553447,0.713211,0.002001,0.001448,0.700945,0.728908,0.728716,0.728992,0.728498,2.915114,-0.728802,-0.000241,0.008021,0.003502,SYSTEM_IDENTIFICATION
3.659914,0.010031,0.008290,-0.019034,-2.018951,0.022623,0.042683,0.022175,-0.008089,0.003102,-9.809459,-0.001819,0.006759,0.003708,-0.003178,0.008214,0.001826,0.004873,-0.000686,1.553473,0.713202,0.001978,0.001463,0.700954,0.728830,0.728844,0.729107,0.728427,2.915209,-0.728826,-0.000294,0.008003,0.003497,SYSTEM_IDENTIFICATION
3.669997,0.010083,0.008349,-0.018683,-2.018833,0.022401,0.042536,0.022097,-0.002139,0.005002,-9.812963,-0.002941,0.008123,0.002643,-0.001859,0.007941,0.002598,0.004852,-0.000620,1.553490,0.713196,0.001948,0.001480,0.700960,0.728723,0.729043,0.728724,0.728815,2.915305,-0.728849,-0.000268,0.008071,0.003493,SYSTEM_IDENTIFICATION
